Time;pv/sensors/flowX;pv/sensors/flowY;pv/sensors/gyroX;pv/sensors/gyroY;pv/sensors/gyroZ
1595856049596;;;-0.00390625
1595856049601;;;;0.001953125
1595856049656;;;0
1595856049656;;;;0
1595856049659;;;;;0
1595856049709;;;0
1595856049710;;;;0
1595856049711;;;;;0
1595856049767;;;0
1595856049771;;;;0
1595856049776;;;;;0
1595856049827;;;0
1595856049828;;;;0
1595856049828;;;;;0
1595856049890;;;0
1595856049890;;;;0
1595856049892;;;;;0
1595856049910;-0.111111
1595856049956;;;0
1595856049958;;;;0
1595856049959;;;;;0
1595856050005;;;0
1595856050009;;;;0
1595856050012;;;;;0
1595856050023;0.111111
1595856050067;;;0
1595856050067;;;;0
1595856050068;;;;;0
1595856050125;0
1595856050131;;;0
1595856050131;;;;0
1595856050137;;;;;0
1595856050188;;;0
1595856050190;;;;0
1595856050193;;;;;0
1595856050231;;0
1595856050251;;;;0
1595856050260;;;;;0
1595856050309;;;;;0.00390625
1595856050344;0.288888603
1595856050354;;0
1595856050371;;;0
1595856050377;;;;0
1595856050377;;;;;0.001953125
1595856050427;;;;0
1595856050485;;;0.009765625
1595856050488;;;;0
1595856050488;;;;;0.00390625
1595856050517;;0
1595856050549;;;0.005859375
1595856050561;;;;;0
1595856050610;;;;-0.00390625
1595856050668;;;0
1595856050668;;;;0
1595856050668;;;;;0
1595856050727;;;0.00390625
1595856050733;;;;;0
1595856050785;;;0.005859375
1595856050787;;;;0
1595856050787;;;;;0
1595856050829;;0
1595856050848;;;0.00390625
1595856050849;;;;0
1595856050908;;;0.00390625
1595856050911;;;;0
1595856050917;;;;;-0.00390625
1595856050966;;;0
1595856050969;;;;;0
1595856051026;;;0.005859375
1595856051026;;;;;0
1595856051087;;;;;0.00390625
1595856051129;0
1595856051147;;;;0.00390625
1595856051149;;;;;0
1595856051207;;;;0.005859375
1595856051207;;;;;0
1595856051229;0
1595856051277;;;0
1595856051277;;;;0
1595856051277;;;;;0
1595856051324;;;0
1595856051360;;;;0
1595856051367;;;;;0
1595856051367;;0
1595856051385;;;0
1595856051385;;;;0
1595856051387;;;;;0
1595856051453;;0
1595856051453;;;0.001953125
1595856051454;;;;-0.0234375
1595856051454;;;;;0.109375
1595856051507;;;;-0.21875
1595856051562;;;0.021484375
1595856051567;;;;-0.125
1595856051567;;;;;-0.25390625
1595856051633;;0
1595856051634;;;0.13671875
1595856051634;;;;-0.31640625
1595856051634;;;;;-0.46484375
1595856051723;;;-0.27734375
1595856051723;;;;-0.00390625
1595856051723;;;;;-0.75
1595856051724;;0.266666412
1595856051742;;;0.22265625
1595856051745;;;;;-1.01953125
1595856051817;;;-0.1328125
1595856051817;;;;0.083984375
1595856051817;;;;;-1.08007812
1595856051826;0
1595856051832;;0.333333015
1595856051868;;;-0.00390625
1595856051900;;;;0.125
1595856051901;;;;;-1.13085938
1595856051930;;;;0.162109375
1595856051933;;;;;-1.06835938
1595856051993;;;;;-1.06054688
1595856052037;;0
1595856052046;;;0.4453125
1595856052080;;;;0.189453125
1595856052084;;;;;-0.796875
1595856052111;;;;;-0.52734375
1595856052174;;;0.740234375
1595856052174;;;;0.111328125
1595856052174;;;;;-0.4453125
1595856052212;;0
1595856052225;;;0.41796875
1595856052228;;;;-0.01953125
1595856052231;;;;;-0.375
1595856052291;;;0.08203125
1595856052294;;;;0
1595856052346;;;-0.08203125
1595856052352;;;;-0.0859375
1595856052409;;;;-0.0703125
1595856052409;;;;;-0.0625
1595856052430;;0
1595856052467;;;0.029296875
1595856052470;;;;;0.099609375
1595856052527;;;;-0.00390625
1595856052528;;;;;0.08984375
1595856052540;0
1595856052588;;;0.1171875
1595856052588;;;;-0.078125
1595856052591;;;;;0.076171875
1595856052641;0
1595856052648;;;;-0.015625
1595856052651;;;;;0.041015625
1595856052709;;;0.375
1595856052716;;;;0.03515625
1595856052717;;;;;0.08984375
1595856052717;0
1595856052767;;;-0.1484375
1595856052768;;;;0.00390625
1595856052770;;;;;0.0234375
1595856052817;0
1595856052827;;;0.125
1595856052829;;;;0.013671875
1595856052831;;;;;0.005859375
1595856052894;;;;0.037109375
1595856052894;;;;;-0.00390625
1595856052944;;;0.060546875
1595856052948;;;;0.044921875
1595856052949;;;;;0.037109375
1595856053005;;;;0.01171875
1595856053028;0
1595856053034;;0
1595856053073;;;;0.064453125
1595856053126;;;;;0
1595856053133;;0
1595856053185;;;0.046875
1595856053185;;;;-0.1796875
1595856053188;;;;;0.00390625
1595856053248;;;0.056640625
1595856053251;;;;;0.046875
1595856053304;;;0.0625
1595856053309;;;;;0.015625
1595856053316;;0
1595856053369;;;-0.0546875
1595856053369;;;;0.02734375
1595856053372;;;;;0.001953125
1595856053417;;0
1595856053426;;;0.005859375
1595856053487;;;0.017578125
1595856053488;;;;0.02734375
1595856053489;;;;;-0.00390625
1595856053546;;;;0.048828125
1595856053546;;;;;0.0078125
1595856053604;;;0.01171875
1595856053609;;;;0.029296875
1595856053609;;;;;-0.00390625
1595856053670;;;-0.1015625
1595856053675;;;;0.03515625
1595856053676;;;;;0.0234375
1595856053723;;;0.04296875
1595856053733;;;;-0.015625
1595856053734;;;;;0.005859375
1595856053740;0
1595856053743;;0
1595856053789;;;;0.0390625
1595856053789;;;;;-0.01171875
1595856053809;;0
1595856053846;;;0.044921875
1595856053850;;;;-0.01953125
1595856053852;;;;;0.02734375
1595856053903;;;;0.017578125
1595856053903;;;;;0
1595856053965;;;-0.01171875
1595856053967;;;;0
1595856053969;;;;;0.00390625
1595856054022;;;0.013671875
1595856054023;;;;0.025390625
1595856054083;;;;0.037109375
1595856054084;;;;;0.01953125
1595856054124;;0
1595856054142;;;-0.07421875
1595856054148;;;;0.029296875
1595856054148;;;;;0.01953125
1595856054210;;;;-0.01171875
1595856054213;;;;;0.0234375
1595856054233;;0
1595856054262;;;-0.2109375
1595856054268;;;;;0.009765625
1595856054322;;;-0.109375
1595856054322;;;;;0.021484375
1595856054340;;0
1595856054384;;;-0.2109375
1595856054384;;;;;0.009765625
1595856054441;;;-0.3828125
1595856054450;;;;0
1595856054450;;;;;0.001953125
1595856054505;;;-0.65234375
1595856054505;;;;-0.01171875
1595856054506;;;;;0.03515625
1595856054518;0
1595856054523;;0
1595856054565;;;;;0.03125
1595856054621;;;-0.5546875
1595856054625;;;;0.03515625
1595856054627;;;;;0.033203125
1595856054685;;;-0.63671875
1595856054685;;;;;0.02734375
1595856054727;;0
1595856054740;;;-0.74609375
1595856054743;;;;0.025390625
1595856054743;;;;;0.01171875
1595856054803;;;-0.62109375
1595856054807;;;;-0.015625
1595856054807;;;;;0.015625
1595856054834;0.111111
1595856054866;;;;0.015625
1595856054866;;;;;0.01953125
1595856054919;;;-0.5546875
1595856054934;;;;;0.029296875
1595856054948;;0.177777603
1595856054985;;;-0.375
1595856054988;;;;0.009765625
1595856054988;;;;;-0.015625
1595856055015;-0.111111
1595856055041;;;-0.2578125
1595856055101;;;;0.02734375
1595856055104;;;;;0.029296875
1595856055120;0.266666412
1595856055120;;0.288888603
1595856055163;;;;0.029296875
1595856055166;;;;;-0.015625
1595856055223;;;;0.04296875
1595856055226;;;;;0.033203125
1595856055226;-0.42222181
1595856055284;;;;0.02734375
1595856055287;;;;;0
1595856055342;;0
1595856055343;;;0.125
1595856055343;;;;-0.02734375
1595856055343;;;;;0.01953125
1595856055419;;;-0.046875
1595856055420;;;;-0.01953125
1595856055420;;;;;0.013671875
1595856055460;;;0.12890625
1595856055460;;;;0.005859375
1595856055466;;;;;-0.00390625
1595856055533;;;0.087890625
1595856055533;;;;0.00390625
1595856055533;;;;;-0.02734375
1595856055596;;;0.234375
1595856055597;;;;0.01953125
1595856055599;;;;;-0.02734375
1595856055639;;;0.443359375
1595856055701;;;0.236328125
1595856055702;;;;0
1595856055777;;;0.626953125
1595856055778;;;;0.025390625
1595856055778;;;;;-0.02734375
1595856055817;;;0.1640625
1595856055824;;;;0.033203125
1595856055835;;;;;-0.0078125
1595856055835;0.42222181
1595856055884;;;0.333984375
1595856055885;;;;0.005859375
1595856055886;;;;;-0.0234375
1595856055957;0.533332825
1595856055958;;;0.380859375
1595856055958;;;;0.017578125
1595856055998;;;0.328125
1595856056010;;;;;-0.015625
1595856056048;0.311110795
1595856056061;;;0.349609375
1595856056067;;;;0.001953125
1595856056067;;;;;-0.02734375
1595856056137;0.488888413
1595856056137;;;0.8125
1595856056138;;;;0.009765625
1595856056138;;;;;-0.01953125
1595856056183;;;0.34375
1595856056228;0.355555207
1595856056243;;;0.5078125
1595856056243;;;;0.0078125
1595856056249;;;;;-0.0234375
1595856056318;;;0.46875
1595856056319;;;;-0.03515625
1595856056319;0.599999428
1595856056323;;0
1595856056366;;;0.5
1595856056366;;;;0.03515625
1595856056428;;;0.54296875
1595856056433;;;;0.005859375
1595856056434;0.555554986
1595856056484;;;0.232421875
1595856056484;;;;0
1595856056534;0.488888413
1595856056543;;;0.626953125
1595856056546;;;;0
1595856056546;;;;;0
1595856056592;;;0.591796875
1595856056595;;;;-0.01171875
1595856056599;;;;;-0.0078125
1595856056639;0.555554986
1595856056646;;;0.380859375
1595856056649;;;;0.001953125
1595856056651;;;;;-0.015625
1595856056706;;;0.345703125
1595856056709;;;;0.044921875
1595856056710;;;;;-0.02734375
1595856056712;0.377777398
1595856056716;;0.133333206
1595856056761;;;0.302734375
1595856056765;;;;0.044921875
1595856056817;0.355555207
1595856056827;;;0.294921875
1595856056827;;;;0.0234375
1595856056887;;;0.55078125
1595856056922;0.288888603
1595856056944;;;0.19140625
1595856056944;;;;0.001953125
1595856056946;;;;;0
1595856057010;;;0.654296875
1595856057013;;;;0.005859375
1595856057013;;;;;-0.0234375
1595856057034;0.355555207
1595856057061;;;0.2265625
1595856057067;;;;;-0.00390625
1595856057125;;;0.21484375
1595856057128;;;;;-0.0078125
1595856057134;0.311110795
1595856057182;;;0.392578125
1595856057184;;;;0.044921875
1595856057239;0.288888603
1595856057242;;;0.513671875
1595856057249;;;;0.013671875
1595856057250;;;;;-0.02734375
1595856057311;;;0.318359375
1595856057317;;;;-0.01953125
1595856057318;;;;;-0.01171875
1595856057323;0.177777603
1595856057323;;0.488888413
1595856057362;;;0.47265625
1595856057366;;;;-0.01171875
1595856057367;;;;;0
1595856057415;0.333333015
1595856057422;;0.155555397
1595856057427;;;0.3984375
1595856057427;;;;;0.00390625
1595856057484;;;0.453125
1595856057488;;;;0
1595856057492;;;;;0
1595856057525;;;0.556640625
1595856057533;;;;-0.01953125
1595856057580;;;0.30078125
1595856057633;;0
1595856057641;;;0.28125
1595856057643;;;;-0.01953125
1595856057646;;;;;-0.015625
1595856057702;;;0.255859375
1595856057707;;;;0.013671875
1595856057710;;;;;0.025390625
1595856057740;;0
1595856057758;;;0.3125
1595856057765;;;;-0.0234375
1595856057772;;;;;0.02734375
1595856057820;;;0.390625
1595856057823;;;;0.005859375
1595856057825;;;;;-0.01171875
1595856057842;0
1595856057884;;;0.357421875
1595856057885;;;;0.005859375
1595856057916;;0
1595856057940;;;0.380859375
1595856057941;;;;0.00390625
1595856057999;;;0.26171875
1595856058001;;;;;0.01171875
1595856058025;0
1595856058068;;;0.4375
1595856058071;;;;;0
1595856058122;;;0.427734375
1595856058127;;;;-0.0078125
1595856058134;;;;;0.04296875
1595856058134;;0
1595856058179;;;0.48046875
1595856058228;0
1595856058245;;;0.220703125
1595856058248;;;;;0.021484375
1595856058298;;;0.2421875
1595856058306;;;;;-0.01171875
1595856058336;-0.111111
1595856058358;;;0.130859375
1595856058362;;;;0.025390625
1595856058365;;;;;0
1595856058419;;;0.220703125
1595856058422;;;;0.013671875
1595856058428;;;;;-0.01953125
1595856058479;;;0.197265625
1595856058482;;;;;0.01171875
1595856058539;;;0.1171875
1595856058546;;;;;0.025390625
1595856058602;;;;-0.00390625
1595856058602;;;;;0.02734375
1595856058621;0.133333206
1595856058662;;;-0.3359375
1595856058665;;;;0
1595856058665;;;;;-0.01171875
1595856058716;;;-0.4140625
1595856058719;;;;0.005859375
1595856058723;0
1595856058729;;0
1595856058777;;;-0.46875
1595856058779;;;;;0.009765625
1595856058901;;;;0.01171875
1595856058906;;;;;-0.00390625
1595856058960;;;-0.60546875
1595856058960;;;;-0.0078125
1595856058963;;;;;0.00390625
1595856059021;;;;-0.03125
1595856059025;;;;;0.015625
1595856059142;;;-0.7109375
1595856059143;;;;;0.01953125
1595856059210;;;-0.47265625
1595856059213;;;;0.009765625
1595856059215;;;;;0
1595856059233;;0
1595856059262;;;-0.671875
1595856059262;;;;-0.01171875
1595856059268;;;;;-0.00390625
1595856059322;;;;0.01171875
1595856059324;;;;;0
1595856059336;0.222222
1595856059336;;0
1595856059380;;;-0.89453125
1595856059383;;;;;0.033203125
1595856059437;0
1595856059446;;;;-0.00390625
1595856059451;;;;;0
1595856059517;;;-1
1595856059519;;;;-0.03515625
1595856059519;;;;;0.03515625
1595856059566;;;-0.19140625
1595856059570;;;;;0.013671875
1595856059651;0
1595856059651;;;-0.69921875
1595856059651;;;;-0.01171875
1595856059651;;;;;0.03515625
1595856059688;;;;0.017578125
1595856059694;;;;;0.013671875
1595856059737;0.111111
1595856059751;;;-0.8671875
1595856059751;;;;;0.01171875
1595856059827;;;-0.28125
1595856059827;;;;-0.04296875
1595856059827;;;;;0.017578125
1595856059829;;0
1595856059870;;;-0.5859375
1595856059872;;;;;0.017578125
1595856059925;;;-0.48046875
1595856059935;;;;;0.02734375
1595856059935;0
1595856059936;;0.133333206
1595856060005;;;-0.5546875
1595856060005;;;;;0.005859375
1595856060036;;0.599999428
1595856060051;;;-0.3828125
1595856060051;;;;;0.00390625
1595856060128;;;-0.6171875
1595856060128;;;;0.001953125
1595856060134;;;;;0.0234375
1595856060191;;;-0.5234375
1595856060191;;;;-0.03125
1595856060191;;;;;0.03125
1595856060221;;;;;0.044921875
1595856060277;;;;-0.03515625
1595856060278;;;;;0.015625
1595856060331;;;;0.025390625
1595856060331;;;;;0.0234375
1595856060405;;;-1.00195312
1595856060406;;;;-0.01171875
1595856060409;;;;;0.0546875
1595856060460;-0.64444381
1595856060460;;;-0.40234375
1595856060460;;;;;0.02734375
1595856060544;;;;0.0234375
1595856060550;;;;;0.05078125
1595856060575;;;;-0.01171875
1595856060576;;;;;0.0390625
1595856060633;;;-0.76953125
1595856060636;;;;;0.021484375
1595856060692;;;-0.01171875
1595856060700;;;;-0.03515625
1595856060701;;;;;0.005859375
1595856060713;-0.86666584
1595856060753;;;0.537109375
1595856060756;;;;;-0.02734375
1595856060817;;;1.58203125
1595856060822;;;;;-0.08203125
1595856060873;;;1.73632812
1595856060879;;;;0.02734375
1595856060880;;;;;-0.12109375
1595856060929;0.355555207
1595856060929;;0
1595856060936;;;1.703125
1595856060936;;;;0.01953125
1595856060938;;;;;-0.12109375
1595856060993;;;1.9921875
1595856061000;;;;0.037109375
1595856061033;1.95555365
1595856061051;;;2.15234375
1595856061054;;;;0.001953125
1595856061117;;;2.15820312
1595856061117;;;;0.0234375
1595856061145;1.66666508
1595856061173;;;1.84375
1595856061175;;;;0.076171875
1595856061231;;;1.67773438
1595856061236;;;;0.056640625
1595856061249;;;;;-0.05859375
1595856061250;2.02222013
1595856061290;;;1.578125
1595856061295;;;;0.0703125
1595856061316;1.51110959
1595856061351;;;1.61523438
1595856061353;;;;0.02734375
1595856061413;;;1.45703125
1595856061416;;;;0.048828125
1595856061419;;;;;0.025390625
1595856061432;0.199999809
1595856061436;;0.177777603
1595856061471;;;1.0859375
1595856061474;;;;0.021484375
1595856061476;;;;;0.01171875
1595856061526;1.31110978
1595856061528;;0.199999809
1595856061541;;;0.748046875
1595856061542;;;;0.009765625
1595856061543;;;;;0.03515625
1595856061601;;;-0.42578125
1595856061608;;;;;0.03125
1595856061649;1.15555441
1595856061649;;0
1595856061656;;;-1.70507812
1595856061659;;;;-0.01953125
1595856061662;;;;;0.126953125
1595856061717;;;-2.33007812
1595856061723;;;;0.029296875
1595856061723;;;;;0.080078125
1595856061746;0.688888192
1595856061781;;;-2.80859375
1595856061783;;;;-0.02734375
1595856061783;;;;;0.138671875
1595856061852;;;-1.92382812
1595856061852;;;;0.154296875
1595856061858;;;;;0.076171875
1595856061859;-1.28888762
1595856061909;;;-2.109375
1595856061911;;;;0.041015625
1595856061917;;;;;0.080078125
1595856061925;-1.97777581
1595856061966;;;-2.24023438
1595856061970;;;;0.0546875
1595856061970;;;;;0.05859375
1595856062014;;;-3.17578125
1595856062014;;;;-0.05078125
1595856062019;;;;;0.1484375
1595856062067;;;-2.94921875
1595856062067;;;;;0.13671875
1595856062136;;;-2.15039062
1595856062136;;;;-0.05078125
1595856062139;;;;;0.109375
1595856062202;;;-2.20507812
1595856062210;;;;;0.103515625
1595856062237;;0.311110795
1595856062253;;;-2.03125
1595856062255;;;;-0.09375
1595856062260;;;;;0.0859375
1595856062317;;;-1.87304688
1595856062320;;;;-0.08984375
1595856062320;;;;;0.041015625
1595856062346;-2.02222013
1595856062349;;0.533332825
1595856062370;;;-0.953125
1595856062370;;;;;-0.0078125
1595856062424;-2.26666451
1595856062432;;;0.130859375
1595856062487;;;0.87890625
1595856062493;;;;0.025390625
1595856062493;;;;;-0.0546875
1595856062525;-1.68888724
1595856062528;;0.111111
1595856062551;;;2.34570312
1595856062554;;;;0.005859375
1595856062612;;;2.73828125
1595856062616;;;;0.0859375
1595856062632;0.244444206
1595856062675;;;2.85546875
1595856062677;;;;0.0859375
1595856062733;;;2.55273438
1595856062736;;;;0.080078125
1595856062738;2.24444222
1595856062791;;;2.16796875
1595856062800;;;;0.068359375
1595856062801;;;;;-0.13671875
1595856062840;3.08888578
1595856062858;;;2.16992188
1595856062858;;;;0.025390625
1595856062860;;;;;-0.125
1595856062910;;;2.58203125
1595856062918;;;;0.017578125
1595856062956;2.22221994
1595856062968;;;2.08984375
1595856062970;;;;0.025390625
1595856063019;0.799999237
1595856063034;;;2.29101562
1595856063036;;;;0.01953125
1595856063088;;;1.953125
1595856063091;;;;0
1595856063148;;;1.92382812
1595856063151;;;;;0.017578125
1595856063218;;;1.75195312
1595856063218;;;;0.025390625
1595856063219;;;;;0.015625
1595856063234;0.288888603
1595856063236;;0
1595856063274;;;1.86328125
1595856063274;;;;0.021484375
1595856063277;;;;;0.076171875
1595856063332;;;2.52539062
1595856063332;;;;0.015625
1595856063333;;;;;0.08203125
1595856063349;1.53333187
1595856063392;;;2.12890625
1595856063394;;;;0.076171875
1595856063396;;;;;0.09765625
1595856063448;1.66666508
1595856063455;;;1.86328125
1595856063461;;;;0.10546875
1595856063461;;;;;0.0625
1595856063521;;;1.73046875
1595856063522;;;;0.0390625
1595856063522;;;;;0.044921875
1595856063523;2.46666431
1595856063567;;;2.03710938
1595856063568;;;;0.001953125
1595856063570;;;;;0.09765625
1595856063621;2.0666647
1595856063632;;;2.14648438
1595856063634;;;;0.021484375
1595856063635;;;;;0.09765625
1595856063699;;;2.15625
1595856063699;;;;0.052734375
1595856063699;;;;;0.111328125
1595856063730;2.08888674
1595856063748;;;1.8359375
1595856063751;;;;0.0625
1595856063754;;;;;0.001953125
1595856063810;;;1.85742188
1595856063819;;;;0.068359375
1595856063825;;;;;-0.0234375
1595856063842;2.46666431
1595856063881;;;1.37695312
1595856063881;;;;0.052734375
1595856063881;;;;;0.0078125
1595856063925;;;1.08203125
1595856063932;;;;0.0546875
1595856063932;;;;;0.01171875
1595856063970;2.0666647
1595856063970;;-0.111111
1595856063988;;;-0.109375
1595856063988;;;;0.00390625
1595856063991;;;;;0.041015625
1595856064024;1.99999809
1595856064060;;;;;-0.00390625
1595856064105;;;-1.734375
1595856064111;;;;0.064453125
1595856064111;;;;;0.12109375
1595856064150;0.844443619
1595856064150;;0
1595856064168;;;-2.11914062
1595856064172;;;;0.009765625
1595856064174;;;;;0.15625
1595856064239;;;-3.84375
1595856064239;;;;-0.0859375
1595856064240;;;;;0.1484375
1595856064287;;;-3.06054688
1595856064289;;;;0.009765625
1595856064289;;;;;0.130859375
1595856064336;-2.31110883
1595856064356;;;-4.18554688
1595856064357;;;;;0.126953125
1595856064420;;;-4.21484375
1595856064420;;;;0.12890625
1595856064420;;;;;0.173828125
1595856064444;-3.9111073
1595856064449;;0.133333206
1595856064471;;;-3.75390625
1595856064473;;;;0.11328125
1595856064476;;;;;0.1796875
1595856064527;-4.66666222
1595856064534;;;-3.5625
1595856064535;;;;0.236328125
1595856064539;;;;;0.23828125
1595856064593;;;-3.25195312
1595856064594;;;;0.16015625
1595856064601;;;;;0.2109375
1595856064628;-3.8444407
1595856064642;;;-2.72070312
1595856064644;;;;0.1875
1595856064648;;;;;0.1484375
1595856064702;;;-3.5390625
1595856064710;;;;0.111328125
1595856064713;;;;;0.083984375
1595856064744;-2.79999733
1595856064768;;;-3.41210938
1595856064771;;;;0.130859375
1595856064774;;;;;0.1640625
1595856064828;;;-3.0546875
1595856064834;;;;0.048828125
1595856064834;;;;;0.130859375
1595856064843;-1.35555422
1595856064879;;;-2.09765625
1595856064882;;;;0.103515625
1595856064882;;;;;0.146484375
1595856064931;;;-2.11328125
1595856064934;;;;0.115234375
1595856064940;;;;;0.0703125
1595856064979;;;-3.35546875
1595856064984;;;;0.09765625
1595856064989;;;;;0.177734375
1595856065025;-1.68888724
1595856065028;;-0.111111
1595856065031;;;-3.03515625
1595856065034;;;;0.076171875
1595856065034;;;;;0.076171875
1595856065086;;;-3.09179688
1595856065089;;;;-0.03515625
1595856065092;;;;;0.1328125
1595856065129;-3.22221899
1595856065144;;;-1.97265625
1595856065150;;;;-0.1015625
1595856065150;;;;;0.025390625
1595856065202;;;-2.83203125
1595856065207;;;;;0.06640625
1595856065237;-3.31110787
1595856065267;;;-2.47851562
1595856065268;;;;-0.078125
1595856065268;;;;;0.02734375
1595856065325;;;-2.16015625
1595856065328;;;;-0.15234375
1595856065334;;;;;0.115234375
1595856065350;-2.71110845
1595856065386;;;-2.390625
1595856065386;;;;-0.16015625
1595856065388;;;;;0.10546875
1595856065434;;;-1.81835938
1595856065439;;;;-0.16015625
1595856065450;;;;;0.056640625
1595856065451;-2.82221937
1595856065452;;0
1595856065484;;;-2.28320312
1595856065487;;;;-0.1640625
1595856065489;;;;;0.125
1595856065544;;;-1.953125
1595856065551;;;;;0.12109375
1595856065552;-2.17777562
1595856065602;;;-2.484375
1595856065605;;;;;0.19921875
1595856065636;-2.02222013
1595856065661;;;-1.56640625
1595856065663;;;;;0.115234375
1595856065740;-2.39999771
1595856065742;;0.222222
1595856065751;;;-1.578125
1595856065751;;;;;0.169921875
1595856065786;;;-1.29492188
1595856065790;;;;;0.087890625
1595856065838;-2.28888655
1595856065842;;0.177777603
1595856065846;;;-0.62109375
1595856065852;;;;;0.03515625
1595856065886;;;0.529296875
1595856065887;;;;0.05078125
1595856065889;;;;;0
1595856065950;-1.31110978
1595856065953;;;1.484375
1595856065956;;;;0.099609375
1595856065958;;;;;-0.08984375
1595856066006;;;1.79296875
1595856066011;;;;0.126953125
1595856066018;;;;;-0.13671875
1595856066068;;;2.05273438
1595856066069;;;;0.16015625
1595856066129;;;2.97460938
1595856066132;;;;0.2109375
1595856066135;;;;;-0.25390625
1595856066152;1.44444299
1595856066187;;;2.18945312
1595856066190;;;;0.26171875
1595856066192;;;;;-0.0859375
1595856066217;2.0666647
1595856066258;;;3.03710938
1595856066258;;;;0.208984375
1595856066261;;;;;-0.27734375
1595856066310;;;1.87109375
1595856066317;;;;0.2265625
1595856066317;;;;;-0.13671875
1595856066328;2.75555277
1595856066368;;;3.32226562
1595856066369;;;;0.107421875
1595856066425;;;2.65429688
1595856066432;;;;0.140625
1595856066439;2.59999752
1595856066442;;-0.222222
1595856066472;;;3.78710938
1595856066473;;;;0.037109375
1595856066533;;;4.32226562
1595856066535;;;;0.13671875
1595856066538;2.59999752
1595856066588;;;3.36132812
1595856066593;;;;0.169921875
1595856066649;3.17777467
1595856066655;;;3.32226562
1595856066657;;;;0.26953125
1595856066659;;;;;-0.2265625
1595856066705;;;3.46875
1595856066711;;;;0.2890625
1595856066717;;;;;-0.26953125
1595856066744;4.7111063
1595856066756;;;2.5078125
1595856066757;;;;0.232421875
1595856066759;;;;;-0.2421875
1595856066804;;;2.84960938
1595856066809;;;;0.158203125
1595856066817;;;;;-0.1953125
1595856066850;3.73332977
1595856066868;;;2.73828125
1595856066873;;;;0.130859375
1595856066873;;;;;-0.1484375
1595856066923;2.95555258
1595856066934;;;3.36328125
1595856066937;;;;0.158203125
1595856066939;;;;;-0.1875
1595856066990;;;2.46875
1595856066992;;;;;-0.125
1595856067035;2.17777562
1595856067053;;;3.23828125
1595856067059;;;;0.103515625
1595856067059;;;;;-0.11328125
1595856067112;;;3.24609375
1595856067117;;;;0.01953125
1595856067176;;;3.35351562
1595856067180;;;;0.115234375
1595856067180;;;;;-0.078125
1595856067228;;;3.08984375
1595856067250;0.86666584
1595856067290;;;3.90429688
1595856067293;;;;0.021484375
1595856067317;3.06666374
1595856067348;;;3.04492188
1595856067353;;;;0
1595856067353;;;;;-0.0859375
1595856067410;;;2.74414062
1595856067412;;;;0.068359375
1595856067412;;;;;-0.12890625
1595856067440;3.9111073
1595856067440;;0
1595856067467;;;1.9296875
1595856067471;;;;0.1640625
1595856067528;;;2.02539062
1595856067537;;;;0.1484375
1595856067538;3.46666336
1595856067588;;;1.46484375
1595856067590;;;;0.126953125
1595856067591;;;;;-0.0390625
1595856067634;2.59999752
1595856067637;;-0.111111
1595856067654;;;1.74414062
1595856067654;;;;0.109375
1595856067656;;;;;-0.0546875
1595856067717;;;1.5
1595856067717;;;;0.072265625
1595856067717;;;;;0.0390625
1595856067722;1.97777581
1595856067798;;;1.28710938
1595856067798;;;;0.15625
1595856067798;;;;;0.0703125
1595856067823;1.6444428
1595856067843;;;0.76953125
1595856067845;;;;0.220703125
1595856067851;;;;;0.041015625
1595856067898;;;-0.24609375
1595856067903;;;;0.123046875
1595856067903;;;;;0.03515625
1595856067909;1.51110959
1595856067978;;;;0.111328125
1595856067979;;;;;0.0234375
1595856068019;;;-0.8515625
1595856068020;;;;;0.12109375
1595856068067;0.466666222
1595856068075;;;-1.52148438
1595856068075;;;;-0.0390625
1595856068084;;;;;0.1328125
1595856068117;;0
1595856068158;;;-2.63867188
1595856068159;;;;-0.1171875
1595856068159;;;;;0.150390625
1595856068199;;;-1.98632812
1595856068201;;;;0.033203125
1595856068204;;;;;0.0859375
1595856068248;-1.39999866
1595856068256;;;-3.6015625
1595856068262;;;;-0.05859375
1595856068268;;;;;0.18359375
1595856068339;;;-2.83398438
1595856068340;;;;0.087890625
1595856068340;;;;;0.046875
1595856068341;-2.31110883
1595856068382;;;-4.29101562
1595856068383;;;;0.169921875
1595856068385;;;;;0.17578125
1595856068435;-3.28888559
1595856068448;;;-4.57617188
1595856068450;;;;0.25
1595856068451;;;;;0.2578125
1595856068518;;;-5.03710938
1595856068519;;;;0.21484375
1595856068521;;;;;0.314453125
1595856068543;-3.64444089
1595856068567;;;-4.03710938
1595856068569;;;;0.17578125
1595856068569;;;;;0.234375
1595856068635;;;-3.6484375
1595856068636;;;;0.33203125
1595856068646;;;;;0.150390625
1595856068654;-4.79999542
1595856068696;;;-3.04492188
1595856068696;;;;0.109375
1595856068696;;;;;0.138671875
1595856068717;-3.9777739
1595856068720;;-0.111111
1595856068752;;;-2.75
1595856068754;;;;0.126953125
1595856068758;;;;;0.15234375
1595856068817;;;-2.58789062
1595856068818;;;;0.044921875
1595856068818;;;;;0.099609375
1595856068843;-0.111111
1595856068843;;0.133333206
1595856068875;;;-3.54492188
1595856068878;;;;0.158203125
1595856068878;;;;;0.138671875
1595856068942;;;-2.90820312
1595856068945;;;;0.12890625
1595856068948;;;;;0.08984375
1595856068998;;;-3.13476562
1595856069003;;;;0.15625
1595856069005;;;;;0.072265625
1595856069034;0.111111
1595856069067;;;-3.015625
1595856069067;;;;0.115234375
1595856069070;;;;;0.103515625
1595856069117;;;-2.921875
1595856069117;;;;0.2421875
1595856069117;;;;;0.185546875
1595856069142;-3.53332996
1595856069174;;;-2.70507812
1595856069178;;;;0.037109375
1595856069181;;;;;0.138671875
1595856069233;;;-2.40039062
1595856069239;;;;0.048828125
1595856069239;;;;;0.06640625
1595856069248;-3.37777448
1595856069298;;;-2.8203125
1595856069304;;;;;0.173828125
1595856069327;-3.44444108
1595856069366;;;-1.73632812
1595856069368;;;;;0.064453125
1595856069433;-2.46666431
1595856069434;;0
1595856069436;;;-2.828125
1595856069439;;;;;0.189453125
1595856069483;;;-2.02929688
1595856069486;;;;;0.09765625
1595856069535;-1.86666489
1595856069538;;;-2.00585938
1595856069540;;;;;0.1484375
1595856069589;;;-1.76953125
1595856069591;;;;-0.046875
1595856069594;;;;;0.08984375
1595856069639;-2.53333092
1595856069643;;0.155555397
1595856069658;;;;-0.03515625
1595856069660;;;;;0.041015625
1595856069717;;;-0.15625
1595856069717;;;;-0.0546875
1595856069719;;;;;0.01953125
1595856069746;-2.1333313
1595856069767;;;0.46484375
1595856069770;;;;-0.0234375
1595856069771;;;;;-0.03515625
1595856069828;;;1.00585938
1595856069832;;;;-0.05078125
1595856069852;-1.33333206
1595856069898;;;1.44726562
1595856069901;;;;;-0.1015625
1595856069918;0.199999809
1595856069950;;;1.8125
1595856069956;;;;0.107421875
1595856070015;;;1.74414062
1595856070015;;;;0.068359375
1595856070020;;;;;-0.125
1595856070026;1.42222083
1595856070028;;0
1595856070073;;;2.0234375
1595856070075;;;;0.080078125
1595856070076;;;;;-0.19921875
1595856070134;1.86666489
1595856070135;;;2.71289062
1595856070135;;;;0.154296875
1595856070138;;;;;-0.2265625
1595856070195;;;5.078125
1595856070198;;;;;-0.5234375
1595856070251;2.02222013
1595856070257;;;4.3046875
1595856070260;;;;0.046875
1595856070313;;;3.83203125
1595856070317;;;;0.080078125
1595856070344;2.77777505
1595856070361;;;3.70703125
1595856070368;;;;0.134765625
1595856070421;;;3.49023438
1595856070424;;;;0.005859375
1595856070427;;;;;-0.2265625
1595856070451;4.97777271
1595856070476;;;3.97070312
1595856070485;;;;0.0859375
1595856070521;4.08888483
1595856070533;;-0.111111
1595856070561;;;3.75390625
1595856070561;;;;0.1953125
1595856070612;;;3.34570312
1595856070616;;;;0.146484375
1595856070619;;;;;-0.171875
1595856070625;4.48888445
1595856070640;;-0.111111
1595856070664;;;2.78710938
1595856070667;;;;0.138671875
1595856070667;;;;;-0.125
1595856070722;;;2.890625
1595856070723;;;;0.068359375
1595856070735;3.24444127
1595856070785;;;3.30078125
1595856070788;;;;0
1595856070839;0.288888603
1595856070864;;;3.8203125
1595856070870;;;;0.046875
1595856070875;;;;;-0.078125
1595856070914;;;2.95507812
1595856070920;;;;0.072265625
1595856070920;;;;;0.0390625
1595856070947;0.288888603
1595856070953;;-0.222222
1595856070974;;;2.97265625
1595856070979;;;;0.064453125
1595856070984;;;;;-0.09765625
1595856071021;3.66666317
1595856071024;;-0.111111
1595856071034;;;2.72851562
1595856071035;;;;0.0234375
1595856071085;;;2.125
1595856071091;;;;0.041015625
1595856071093;;;;;-0.08984375
1595856071118;3.55555201
1595856071145;;;1.18554688
1595856071209;;;;-0.01953125
1595856071218;;;;;-0.04296875
1595856071235;2.77777505
1595856071240;;0
1595856071270;;;-2.44140625
1595856071275;;;;0.033203125
1595856071275;;;;;0.04296875
1595856071334;;;-4.16601562
1595856071334;;;;0.0625
1595856071336;;;;;0.25390625
1595856071337;1.19999886
1595856071388;;;-2.84960938
1595856071391;;;;0.1484375
1595856071391;;;;;0.078125
1595856071440;-1.93333149
1595856071457;;;-4.42578125
1595856071458;;;;0.052734375
1595856071461;;;;;0.197265625
1595856071516;;;-4.42578125
1595856071518;;;;0.052734375
1595856071520;;;;;0.201171875
1595856071545;-4.08888483
1595856071550;;0
1595856071562;;;-3.99414062
1595856071565;;;;0.05859375
1595856071569;;;;;0.16015625
1595856071617;;;-3.48632812
1595856071620;;;;0.080078125
1595856071622;;;;;0.181640625
1595856071624;-4.3999958
1595856071666;;;-2.83398438
1595856071666;;;;0.103515625
1595856071668;;;;;0.126953125
1595856071718;;;-3.12109375
1595856071720;;;;0.19140625
1595856071723;;;;;0.150390625
1595856071734;-3.02221918
1595856071766;;;-3.44921875
1595856071769;;;;0.109375
1595856071772;;;;;0.216796875
1595856071819;;;-2.85351562
1595856071824;;;;0.076171875
1595856071824;;;;;0.12109375
1595856071835;0
1595856071889;;;-1.67773438
1595856071892;;;;0.013671875
1595856071892;;;;;0.076171875
1595856071938;-2.28888655
1595856071969;;;;0.013671875
1595856071979;;;;;0.009765625
1595856072003;;;1.58007812
1595856072010;;;;0.029296875
1595856072051;-2.46666431
1595856072063;;;3.265625
1595856072068;;;;;-0.19140625
1595856072140;;;3.13085938
1595856072141;;;;0.005859375
1595856072187;;;3.63867188
1595856072190;;;;-0.03515625
1595856072190;;;;;-0.13671875
1595856072228;2.88888597
1595856072242;;;2.4140625
1595856072245;;;;0.017578125
1595856072245;;;;;-0.0859375
1595856072319;;;2.79296875
1595856072328;2.86666393
1595856072330;;0.133333206
1595856072365;;;2.38867188
1595856072370;;;;-0.01171875
1595856072370;;;;;-0.1328125
1595856072423;;;2.671875
1595856072428;0
1595856072501;;;2.64453125
1595856072501;;;;-0.03515625
1595856072541;;;2.5625
1595856072545;;;;-0.00390625
1595856072545;;;;;0.013671875
1595856072622;;;2.50976562
1595856072625;;;;0.00390625
1595856072635;;;;;-0.03125
1595856072644;1.42222083
1595856072682;;;2.64453125
1595856072729;;;3.25
1595856072770;2.62221956
1595856072770;;0
1595856072786;;;2.41601562
1595856072825;2.77777505
1595856072858;;0
1595856072859;;;;-0.0546875
1595856072859;;;;;0.103515625
1595856072899;;;-3.54882812
1595856072902;;;;0.107421875
1595856072904;;;;;0.189453125
1595856072950;3.55555201
1595856072967;;;-3.81640625
1595856072971;;;;0.08203125
1595856072972;;;;;0.359375
1595856073021;;;-4.3046875
1595856073022;;;;;0.31640625
1595856073085;;;-5.17382812
1595856073085;;;;-0.1015625
1595856073086;;;;;0.376953125
1595856073138;-4.57777309
1595856073145;;0
1595856073149;;;-4.9609375
1595856073151;;;;0.10546875
1595856073151;;;;;0.27734375
1595856073202;;;-3.37304688
1595856073203;;;;0.080078125
1595856073209;;;;;0.240234375
1595856073248;-4.51110649
1595856073262;;;-4.06640625
1595856073265;;;;0.1953125
1595856073269;;;;;0.2734375
1595856073315;-1.73333168
1595856073324;;0.133333206
1595856073327;;;-4.52539062
1595856073330;;;;0.251953125
1595856073330;;;;;0.26953125
1595856073384;;;-4.11328125
1595856073384;;;;0.44140625
1595856073384;;;;;0.271484375
1595856073425;;0.466666222
1595856073439;;;-3.97460938
1595856073442;;;;0.15625
1595856073442;;;;;0.18359375
1595856073503;;;-2.40820312
1595856073505;;;;0.119140625
1595856073512;;;;;0.146484375
1595856073529;-4.31110668
1595856073535;;0
1595856073563;;;-3.53320312
1595856073569;;;;0.005859375
1595856073572;;;;;0.130859375
1595856073627;;;-3.828125
1595856073629;;;;0.0234375
1595856073630;;;;;0.17578125
1595856073637;-4.17777348
1595856073684;;;-3.75195312
1595856073686;;;;0.119140625
1595856073686;;;;;0.078125
1595856073740;-3.8444407
1595856073751;;;-3.84570312
1595856073754;;;;0.076171875
1595856073755;;;;;0.23046875
1595856073816;;;-2.703125
1595856073817;;;;0.099609375
1595856073819;;;;;0.08203125
1595856073849;-4.06666279
1595856073851;;0
1595856073870;;;-3.20703125
1595856073876;;;;0.009765625
1595856073884;;;;;0.138671875
1595856073933;-3.39999676
1595856073937;;0
1595856073940;;;-2.15625
1595856073941;;;;0.056640625
1595856073942;;;;;0.03125
1595856073993;;;-1.9453125
1595856073998;;;;-0.0078125
1595856073998;;;;;0.080078125
1595856074034;-3.4888854
1595856074050;;;-2.1484375
1595856074053;;;;;0.07421875
1595856074113;;;;;0.005859375
1595856074134;-2.28888655
1595856074172;;;0.40234375
1595856074172;;;;-0.06640625
1595856074172;;;;;0.046875
1595856074241;;;1.36328125
1595856074243;;;;-0.01953125
1595856074248;;;;;-0.14453125
1595856074250;-1.68888724
1595856074255;;0.133333206
1595856074293;;;1.96875
1595856074295;;;;0.05078125
1595856074351;;;2.34765625
1595856074358;;;;0.1328125
1595856074405;;;2.28515625
1595856074418;;;;0.1015625
1595856074423;;;;;-0.1953125
1595856074448;1.93333149
1595856074472;;;1.34179688
1595856074474;;;;0.06640625
1595856074517;2.11110902
1595856074530;;;2.72851562
1595856074535;;;;0.083984375
1595856074535;;;;;-0.1796875
1595856074595;;;2.64453125
1595856074599;;;;0.08984375
1595856074628;2.02222013
1595856074653;;;2.90429688
1595856074655;;;;0.099609375
1595856074655;;;;;-0.2109375
1595856074712;;;4.00390625
1595856074716;;;;;-0.25
1595856074738;2.66666412
1595856074776;;;4.30273438
1595856074778;;;;;-0.25390625
1595856074837;;;4.18359375
1595856074842;;;;0.111328125
1595856074845;;;;;-0.2421875
1595856074849;2.99999714
1595856074896;;;3.67773438
1595856074899;;;;0.12890625
1595856074899;;;;;-0.265625
1595856074944;4.42221785
1595856074962;;;4.3359375
1595856074965;;;;0.228515625
1595856074970;;;;;-0.2578125
1595856075021;;;3.5546875
1595856075024;;;;0.201171875
1595856075051;4.46666241
1595856075053;;-0.111111
1595856075080;;;4.13671875
1595856075090;;;;0.337890625
1595856075093;;;;;-0.11328125
1595856075118;4.7111063
1595856075146;;;4.22070312
1595856075149;;;;0.25
1595856075213;;;2.83203125
1595856075216;;;;0.091796875
1595856075228;3.44444108
1595856075265;;;3.5546875
1595856075274;;;;0.080078125
1595856075326;;;3.83984375
1595856075334;;;;-0.0078125
1595856075340;;;;;0.033203125
1595856075340;1.39999866
1595856075345;;0.466666222
1595856075385;;;3.33789062
1595856075388;;;;0.03515625
1595856075391;;;;;0.05859375
1595856075440;;0
1595856075449;;;3.93359375
1595856075449;;;;-0.01953125
1595856075449;;;;;0.08203125
1595856075506;;;3.49804688
1595856075507;;;;;0.0625
1595856075547;2.93333054
1595856075571;;;2.72265625
1595856075574;;;;-0.05859375
1595856075574;;;;;0
1595856075620;4.06666279
1595856075626;;;2.53710938
1595856075636;;;;;-0.01953125
1595856075684;;;2.22265625
1595856075690;;;;0.01953125
1595856075691;;;;;0.02734375
1595856075725;3.7777741
1595856075743;;;2.01171875
1595856075749;;;;;0.05078125
1595856075803;;;2.18359375
1595856075806;;;;0.0078125
1595856075806;;;;;0.0703125
1595856075834;2.59999752
1595856075873;;;1.58984375
1595856075879;;;;0.017578125
1595856075903;;;;;0.068359375
1595856075910;2.1333313
1595856075929;;;1.70117188
1595856075935;;;;0.021484375
1595856075935;;;;;0.03125
1595856075987;;;0.681640625
1595856075987;;;;0.048828125
1595856075988;;;;;0.048828125
1595856076016;1.91110921
1595856076075;;;-0.29296875
1595856076075;;;;;0.0390625
1595856076103;;;-1.25
1595856076106;;;;;0.083984375
1595856076165;1.17777658
1595856076168;;;-1.9296875
1595856076170;;;;0.015625
1595856076174;;;;;0.154296875
1595856076256;;;-3.10546875
1595856076256;;;;-0.0234375
1595856076257;;;;;0.216796875
1595856076288;;;-1.98632812
1595856076298;;;;0.060546875
1595856076298;;;;;0.1015625
1595856076348;-1.777776
1595856076349;;;-4.28710938
1595856076352;;;;0.103515625
1595856076355;;;;;0.19921875
1595856076435;;;-4.15625
1595856076436;;;;0.09765625
1595856076436;;;;;0.275390625
1595856076437;-2.59999752
1595856076479;;;-4.6328125
1595856076480;;;;0.23046875
1595856076484;;;;;0.318359375
1595856076531;;;-4.6015625
1595856076540;;;;0.2109375
1595856076540;;;;;0.32421875
1595856076543;-4.44443989
1595856076616;;;-5.65625
1595856076616;;;;0.220703125
1595856076616;;;;;0.388671875
1595856076641;-4.55555105
1595856076658;;;-5.37109375
1595856076658;;;;0.40234375
1595856076662;;;;;0.38671875
1595856076719;;;-4.28125
1595856076722;;;;0.03515625
1595856076726;;;;;0.248046875
1595856076750;-4.73332882
1595856076797;;;-4.97851562
1595856076797;;;;0.220703125
1595856076801;;;;;0.28125
1595856076821;-3.4888854
1595856076837;;;-3.68359375
1595856076840;;;;0.083984375
1595856076842;;;;;0.244140625
1595856076900;;;-4.3828125
1595856076903;;;;0.02734375
1595856076905;;;;;0.34765625
1595856076952;;;-3.56640625
1595856076955;;;;0.048828125
1595856076955;;;;;0.107421875
1595856077021;;;-3.99609375
1595856077023;;;;0.05859375
1595856077025;;;;;0.294921875
1595856077040;-1.39999866
1595856077043;;0
1595856077072;;;-3.11132812
1595856077074;;;;0.05078125
1595856077082;;;;;0.1796875
1595856077139;;;-3.02929688
1595856077142;;;;;0.041015625
1595856077142;-4.24444008
1595856077195;;;-2.65625
1595856077201;;;;;-0.0234375
1595856077246;-3.93332958
1595856077255;;;-2.51171875
1595856077257;;;;0.046875
1595856077260;;;;;-0.05078125
1595856077316;;;-2.23242188
1595856077320;;;;;0.07421875
1595856077350;-2.62221956
1595856077375;;;-2.125
1595856077382;;;;;0.125
1595856077423;-2.46666431
1595856077443;;;-2.328125
1595856077446;;;;-0.08203125
1595856077446;;;;;0.130859375
1595856077500;;;-2.5
1595856077503;;;;-0.15234375
1595856077503;;;;;0.146484375
1595856077530;-2.1999979
1595856077555;;;-2.42578125
1595856077558;;;;;0.140625
1595856077604;;;-2.1875
1595856077609;;;;-0.12890625
1595856077618;;;;;0.08203125
1595856077639;-2.73333073
1595856077645;;0.111111
1595856077660;;;-1.73632812
1595856077665;;;;-0.0546875
1595856077666;;;;;0.0703125
1595856077724;;;;;-0.00390625
1595856077744;-2.1999979
1595856077752;;0.155555397
1595856077783;;;0.92578125
1595856077786;;;;;-0.03515625
1595856077840;;;2.30859375
1595856077840;;;;0.08984375
1595856077843;;;;;-0.16796875
1595856077861;-1.55555403
1595856077865;;0.155555397
1595856077905;;;2.62890625
1595856077906;;;;0.072265625
1595856077918;0.288888603
1595856077968;;;4.17382812
1595856077970;;;;0.234375
1595856077974;;;;;-0.33203125
1595856078025;1.95555365
1595856078028;;-0.111111
1595856078033;;;3.05078125
1595856078035;;;;0.138671875
1595856078082;;;3.60546875
1595856078085;;;;0.126953125
1595856078085;;;;;-0.24609375
1595856078132;3.19999695
1595856078140;;;1.97851562
1595856078144;;;;0.029296875
1595856078144;;;;;-0.14453125
1595856078212;;;3.25390625
1595856078217;;;;0.099609375
1595856078239;3.7777741
1595856078258;;;3.77929688
1595856078265;;;;0.0546875
1595856078265;;;;;-0.3515625
1595856078313;;;;0.009765625
1595856078316;;;;;-0.4921875
1595856078333;;;5.43164062
1595856078343;2.1999979
1595856078363;;;;0.046875
1595856078384;;;4.72460938
1595856078426;;;;0.107421875
1595856078429;;;;;-0.359375
1595856078444;;;5.00195312
1595856078450;4.17777348
1595856078486;;;;0.119140625
1595856078504;;;4.42382812
1595856078522;5.59999466
1595856078525;;0
1595856078542;;;;0.173828125
1595856078542;;;;;-0.37890625
1595856078550;;;4.93945312
1595856078590;;;;0.15234375
1595856078596;;;;;-0.28515625
1595856078607;;;3.77148438
1595856078628;5.42221689
1595856078636;;-0.111111
1595856078640;;;;0.150390625
1595856078640;;;;;-0.2265625
1595856078675;;;3.390625
1595856078689;;;;0.162109375
1595856078692;;;;;-0.25390625
1595856078737;;;3.41601562
1595856078740;3.68888521
1595856078751;;;;0.12109375
1595856078752;;;;;-0.24609375
1595856078795;;;3.84179688
1595856078812;;;;0.099609375
1595856078821;;;;;-0.2421875
1595856078840;2.44444203
1595856078855;;;4.171875
1595856078871;;;;-0.0625
1595856078917;;;3.58984375
1595856078937;;;;-0.078125
1595856078943;2.97777486
1595856078950;;0
1595856078975;;;3.77929688
1595856079008;;;;-0.04296875
1595856079040;;;2.45117188
1595856079059;4.24444008
1595856079061;;-0.111111
1595856079062;;;;0.046875
1595856079092;;;1.99804688
1595856079111;;;;0.080078125
1595856079120;4.2666626
1595856079152;;;1.90820312
1595856079172;;;;0.072265625
1595856079213;;;1.66210938
1595856079240;2.46666431
1595856079240;;;;0.052734375
1595856079243;;;;;0.01953125
1595856079277;;;1.36914062
1595856079300;;;;0.037109375
1595856079303;;;;;-0.01953125
1595856079318;2.24444222
1595856079343;;;1.05273438
1595856079361;;;;0.005859375
1595856079362;;;;;0.080078125
1595856079409;1.62222064
1595856079419;;;;-0.1015625
1595856079427;;;;;0.060546875
1595856079460;;;-1.62109375
1595856079477;;;;-0.05859375
1595856079481;;;;;0.068359375
1595856079518;;;-2.953125
1595856079531;0.755554795
1595856079551;;;;-0.01953125
1595856079552;;;;;0.1953125
1595856079576;;;-3.62109375
1595856079601;;;;0.10546875
1595856079607;;;;;0.228515625
1595856079634;-1.7111094
1595856079641;;;-3.72460938
1595856079664;;;;0.033203125
1595856079665;;;;;0.314453125
1595856079703;;;-5.19726562
1595856079721;;;;0.189453125
1595856079724;;;;;0.326171875
1595856079743;-3.66666317
1595856079768;;;-5.77734375
1595856079792;;;;0.189453125
1595856079795;;;;;0.390625
1595856079824;;;-6.0390625
1595856079840;;;;0.23828125
1595856079843;;;;;0.375
1595856079851;-4.7777729
1595856079882;;;-4.68945312
1595856079900;;;;0.177734375
1595856079904;;;;;0.220703125
1595856079927;-5.99999428
1595856079955;;;-4.64648438
1595856079966;;;;0.28125
1595856079969;;;;;0.248046875
1595856080039;;;-5.078125
1595856080039;-4.11110687
1595856080039;;;;0.2265625
1595856080041;;;;;0.287109375
1595856080070;;;-3.91015625
1595856080088;;;;0.169921875
1595856080128;;;;;0.146484375
1595856080128;;;-4.84179688
1595856080134;;0.666666031
1595856080151;;;;0.24609375
1595856080152;;;;;0.291015625
1595856080218;;;-3.95703125
1595856080218;;;;0.392578125
1595856080218;;;;;0.158203125
1595856080239;-4.51110649
1595856080241;;-0.111111
1595856080254;;;-4.10742188
1595856080271;;;;0.083984375
1595856080305;;;;;0.279296875
1595856080317;;;-3.03320312
1595856080333;;;;0.140625
1595856080333;;;;;0.013671875
1595856080351;-4.82221746
1595856080399;;;-3.2890625
1595856080401;;;;;0.1484375
1595856080429;;;-2.859375
1595856080451;-4.66666222
1595856080486;;;;0.103515625
1595856080486;;;;;0.09765625
1595856080506;;;-3.22070312
1595856080513;;;;0.16015625
1595856080522;;;;;0.1171875
1595856080524;-2.88888597
1595856080579;;;-3.53125
1595856080579;;;;0.05859375
1595856080579;;;;;0.033203125
1595856080622;;;-2.29101562
1595856080628;-2.59999752
1595856080669;;;;-0.04296875
1595856080669;;;;;0.001953125
1595856080672;;;-2.68164062
1595856080695;;;;-0.03515625
1595856080702;;;;;0.033203125
1595856080717;;;-1.96289062
1595856080758;-3.93332958
1595856080759;;;;-0.00390625
1595856080759;;;;;0.03125
1595856080782;;;-1.375
1595856080850;;;;;0.07421875
1595856080851;;;-0.40234375
1595856080851;-2.59999752
1595856080851;;0.266666412
1595856080877;;;;0.001953125
1595856080880;;;;;0.001953125
1595856080901;;;0.576171875
1595856080938;;;;0
1595856080939;;;;;-0.11328125
1595856080951;-1.46666527
1595856080967;;;1.97070312
1595856080996;;;;-0.15625
1595856080996;;;;;-0.18359375
1595856081026;;;2.96484375
1595856081051;-0.111111
1595856081058;;;;0.01171875
1595856081061;;;;;-0.1953125
1595856081078;;;2.203125
1595856081112;;;;0.02734375
1595856081140;1.777776
1595856081142;;;3.55859375
1595856081176;;;;0.0859375
1595856081184;;;;;-0.10546875
1595856081209;;;2.83398438
1595856081229;2.57777524
1595856081236;;;;0.05078125
1595856081238;;;;;-0.21484375
1595856081273;;;3.328125
1595856081293;;;;0.07421875
1595856081301;;;;;-0.17578125
1595856081339;;;4.20703125
1595856081342;3.71110749
1595856081343;;-0.111111
1595856081354;;;;0.013671875
1595856081393;;;4.61914062
1595856081412;;;;0.02734375
1595856081418;;;;;-0.36328125
1595856081444;3.17777467
1595856081451;;-0.111111
1595856081465;;;5.40429688
1595856081472;;;;0.0546875
1595856081501;;;5.90039062
1595856081534;;;;0.1328125
1595856081537;;;;;-0.328125
1595856081547;4.28888464
1595856081556;;;4.70703125
1595856081594;;;;0.2265625
1595856081601;;;;;-0.25390625
1595856081618;;;4.63085938
1595856081627;5.86666107
1595856081659;;;;0.234375
1595856081669;;;4.3359375
1595856081718;;;;0.142578125
1595856081727;5.66666126
1595856081740;;;3.1015625
1595856081777;;;;0.048828125
1595856081777;;;;;-0.09765625
1595856081794;;;4.0546875
1595856081834;;;;;-0.0625
1595856081836;2.99999714
1595856081838;;0.577777207
1595856081856;;;3.70898438
1595856081893;;;;0.033203125
1595856081893;;;;;0.076171875
1595856081925;;;3.93164062
1595856081952;;;;0.0234375
1595856081971;;;3.79296875
1595856082022;;;;;0.033203125
1595856082034;;;3.65039062
1595856082043;2.93333054
1595856082069;;;;0.048828125
1595856082095;;;3.1953125
1595856082133;;;;;-0.05078125
1595856082158;;;2.98242188
1595856082167;4.46666241
1595856082167;;0
1595856082217;;;2.17578125
1595856082228;3.95555162
1595856082256;;;;;-0.015625
1595856082280;;;2.1484375
1595856082318;;;;0.0234375
1595856082319;;;;;0
1595856082337;3.28888559
1595856082340;;;2.05078125
1595856082374;;;;;0.033203125
1595856082397;;;1.91015625
1595856082422;2.46666431
1595856082437;;;;0.0234375
1595856082440;;;;;0.0625
1595856082461;;;1.375
1595856082494;;;;0.080078125
1595856082495;;;;;0.142578125
1595856082517;;;0.291015625
1595856082526;2.1999979
1595856082551;;;;0.01171875
1595856082557;;;;;0.10546875
1595856082581;;;-1.02929688
1595856082617;1.39999866
1595856082619;;;;-0.01953125
1595856082622;;;;;0.078125
1595856082648;;;-2.35742188
1595856082674;;;;-0.01171875
1595856082677;;;;;0.080078125
1595856082701;;;-2.14453125
1595856082734;;;;-0.10546875
1595856082739;;;;;0.12109375
1595856082750;;0
1595856082761;;;-4.14257812
1595856082794;;;;0.26171875
1595856082796;;;;;0.01953125
1595856082821;;;-3.58203125
1595856082849;-2.08888674
1595856082859;;;;0.357421875
1595856082859;;;;;0.111328125
1595856082872;;;-5.38476562
1595856082924;;;;0.31640625
1595856082926;;;;;0.203125
1595856082943;;;-3.26953125
1595856082953;-4.02221823
1595856082959;;-0.111111
1595856082976;;;;0.1171875
1595856082979;;;;;0.0390625
1595856083001;;;-3.73632812
1595856083027;-5.13332844
1595856083027;;0
1595856083041;;;;0.123046875
1595856083041;;;;;0.162109375
1595856083058;;;-4.5234375
1595856083094;;;;0.099609375
1595856083098;;;;;0.1328125
1595856083125;;;-3.44921875
1595856083134;-3.79999638
1595856083138;;0
1595856083144;;;;0.16015625
1595856083146;;;;;0.1171875
1595856083180;;;-3.97070312
1595856083193;;;;0.140625
1595856083196;;;;;0.291015625
1595856083230;;;-5.49414062
1595856083242;-4.46666241
1595856083245;;;;0.19140625
1595856083245;;;;;0.224609375
1595856083278;;;-4.3125
1595856083291;;;;0.27734375
1595856083299;;;;;0.1328125
1595856083333;;;-3.57421875
1595856083343;-1.08888781
1595856083361;;;;0.109375
1595856083365;;;;;0.140625
1595856083393;;;-3.29492188
1595856083430;;;;0.107421875
1595856083430;;;;;0.09765625
1595856083450;;0
1595856083462;;;-3.89453125
1595856083476;;;;0
1595856083480;;;;;0.080078125
1595856083520;;;-2.52539062
1595856083526;-1.13333225
1595856083532;;-0.111111
1595856083542;;;;0.103515625
1595856083542;;;;;0.04296875
1595856083574;;;-2.546875
1595856083599;;;;-0.0234375
1595856083601;;;;;0.154296875
1595856083630;-4.15555143
1595856083645;;;0.810546875
1595856083658;;;;0.083984375
1595856083660;;;;;-0.05078125
1595856083702;;;1.3359375
1595856083745;;;;;-0.10546875
1595856083749;-2.88888597
1595856083750;;0
1595856083767;;;4.05273438
1595856083792;;;;-0.0546875
1595856083829;;;3.63671875
1595856083835;;;;-0.01953125
1595856083844;;;;;-0.19921875
1595856083849;0.444444001
1595856083851;;0
1595856083878;;;3.45703125
1595856083941;;;2.94921875
1595856083950;3.46666336
1595856083967;;;;-0.09375
1595856084003;;;3.16601562
1595856084023;;;;0.02734375
1595856084026;;;;;-0.08984375
1595856084055;4.3333292
1595856084063;;;3.67773438
1595856084083;;;;0.072265625
1595856084122;;;3.00585938
1595856084136;2.62221956
1595856084146;;;;0.0390625
1595856084187;;;2.578125
1595856084225;;;;0.02734375
1595856084241;2.99999714
1595856084252;;;3.0703125
1595856084269;;;;;0.005859375
1595856084309;;;2.70507812
1595856084326;;;;0.013671875
1595856084330;;;;;0.01953125
1595856084350;0.311110795
1595856084351;;0.111111
1595856084396;;;3.13671875
1595856084399;;;;-0.01171875
1595856084399;;;;;-0.00390625
1595856084426;;;2.93554688
1595856084447;;;;;-0.0703125
1595856084450;1.28888762
1595856084491;;;1.5625
1595856084506;;;;-0.0078125
1595856084577;;;-1.8671875
1595856084579;3.17777467
1595856084579;;;;-0.09765625
1595856084580;;;;;0.1484375
1595856084620;;;-4.75195312
1595856084625;;;;-0.0078125
1595856084635;;;;;0.205078125
1595856084668;2.48888636
1595856084669;;;-4.265625
1595856084684;;;;0.0859375
1595856084687;;;;;0.23046875
1595856084756;;;-4.17382812
1595856084761;-2.42221975
1595856084762;;;;;0.212890625
1595856084785;;;-4.08007812
1595856084849;;;;0.03515625
1595856084849;;;;;0.1328125
1595856084851;-4.3333292
1595856084851;;;-2.9765625
1595856084868;;;;0.076171875
1595856084868;;;;;0.046875
1595856084939;;;-3.015625
1595856084940;;;;0.21484375
1595856084940;;;;;0.111328125
1595856084951;-3.04444146
1595856084967;;;-2.59570312
1595856084986;;;;0.126953125
1595856084995;;;;;0.0859375
1595856085029;;;-3.6328125
1595856085045;;;;0.16015625
1595856085049;;;;;0.08203125
1595856085060;;0
1595856085116;;;-2.75976562
1595856085119;;;;0.05078125
1595856085119;;;;;0.046875
1595856085132;-2.75555277
1595856085135;;-0.222222
1595856085144;;;-2.27929688
1595856085167;;;;0.068359375
1595856085167;;;;;0.01171875
1595856085209;;;-0.37890625
1595856085225;;;;0.037109375
1595856085225;;;;;-0.07421875
1595856085232;-3.75555182
1595856085269;;;1.80273438
1595856085287;;;;;-0.26171875
1595856085331;;;3.65039062
1595856085342;-2.17777562
1595856085348;;;;;-0.24609375
1595856085386;;;4.40820312
1595856085404;;;;0.046875
1595856085446;;;3.18164062
1595856085448;1.33333206
1595856085469;;;;0.095703125
1595856085504;;;3.13671875
1595856085526;;;;0.060546875
1595856085552;4.73332882
1595856085557;;-0.111111
1595856085568;;;1.87695312
1595856085585;;;;0.087890625
1595856085626;2.68888617
1595856085632;;0.199999809
1595856085636;;;2.90039062
1595856085639;;;;0.076171875
1595856085688;;;2.08398438
1595856085688;;;;0.044921875
1595856085737;0.888888001
1595856085737;;;2.05273438
1595856085740;;;;0.03125
1595856085785;;;2.23828125
1595856085785;;;;0.00390625
1595856085846;0.777777016
1595856085850;;;1.57421875
1595856085851;;;;0.056640625
1595856085906;;;2.37304688
1595856085908;;;;0.07421875
1595856085909;;;;;-0.06640625
1595856085941;1.75555384
1595856085967;;;2.18945312
1595856085967;;;;-0.04296875
1595856086023;;;2.31835938
1595856086026;;;;;-0.1484375
1595856086050;1.95555365
1595856086080;;;-0.546875
1595856086087;;;;-0.0625
1595856086091;;;;;0.009765625
1595856086144;;;-3.21679688
1595856086145;;;;0
1595856086145;;;;;0.19140625
1595856086153;2.42221975
1595856086208;;;-3.88085938
1595856086210;;;;-0.0546875
1595856086217;;;;;0.224609375
1595856086232;1.08888781
1595856086271;;;-3.9765625
1595856086273;;;;-0.06640625
1595856086276;;;;;0.26171875
1595856086328;;;-4.10546875
1595856086337;;;;;0.1953125
1595856086339;-3.4888854
1595856086342;;0
1595856086392;;;-4.18554688
1595856086399;;;;0.091796875
1595856086399;;;;;0.1953125
1595856086439;-3.33333015
1595856086456;;;-2.43945312
1595856086456;;;;0.076171875
1595856086458;;;;;0.033203125
1595856086528;;;-2.81835938
1595856086535;;;;0.060546875
1595856086535;;;;;0.08203125
1595856086580;;;-2.44335938
1595856086582;;;;0.0625
1595856086582;;;;;0.037109375
1595856086640;;;-3.4296875
1595856086641;;;;0.068359375
1595856086641;;;;;0.109375
1595856086661;;-0.111111
1595856086706;;;-3.07617188
1595856086716;;;;0.03515625
1595856086717;;;;;0.0078125
1595856086761;-2.62221956
1595856086767;;;-2.55859375
1595856086768;;;;0.14453125
1595856086768;;;;;0.0078125
1595856086814;;;-1.71875
1595856086821;;;;0.107421875
1595856086835;;;;;0.0078125
1595856086844;-4.17777348
1595856086848;;0.111111
1595856086882;;;-0.62890625
1595856086882;;;;0.037109375
1595856086939;-2.82221937
1595856086941;;;1.3828125
1595856086995;;;5.06054688
1595856086999;;;;-0.07421875
1595856087044;-1.33333206
1595856087062;;;5.3671875
1595856087062;;;;;-0.25
1595856087124;;;4.49414062
1595856087126;;;;0.017578125
1595856087142;2.97777486
1595856087177;;;3.40039062
1595856087184;;;;0.080078125
1595856087237;;;3.90625
1595856087240;;;;0.134765625
1595856087252;5.93332767
1595856087300;;;2.375
1595856087301;;;;0.0703125
1595856087303;;;;;-0.06640625
1595856087335;3.55555201
1595856087362;;;2.44726562
1595856087366;;;;0.080078125
1595856087422;;;2.75195312
1595856087423;;;;0.115234375
1595856087427;;;;;-0.06640625
1595856087446;2.53333092
1595856087483;;;3.00976562
1595856087483;;;;0.23828125
1595856087485;;;;;-0.109375
1595856087543;2.44444203
1595856087552;;-0.222222
1595856087556;;;2.609375
1595856087556;;;;0.076171875
1595856087563;;;;;-0.05078125
1595856087595;;;2.33984375
1595856087601;;;;0.04296875
1595856087603;;;;;0.0078125
1595856087644;2.73333073
1595856087660;;;2.17382812
1595856087662;;;;-0.0390625
1595856087665;;;;;0.080078125
1595856087723;;;1.87109375
1595856087734;;;;-0.0625
1595856087734;;;;;0.060546875
1595856087752;2.44444203
1595856087757;;-0.111111
1595856087777;;;;-0.15234375
1595856087777;;;;;0.125
1595856087839;;;-3.6015625
1595856087842;;;;;0.177734375
1595856087853;2.59999752
1595856087903;;;-3.12304688
1595856087904;;;;-0.0703125
1595856087907;;;;;0.140625
1595856087928;0.355555207
1595856087967;;;-2.953125
1595856087969;;;;;0.134765625
1595856088042;;;-1.93164062
1595856088042;;;;;0.046875
1595856088044;-3.7777741
1595856088084;;;-1.75195312
1595856088084;;;;-0.0625
1595856088086;;;;;0.064453125
1595856088140;-2.84444165
1595856088154;;;-1.58984375
1595856088154;;;;-0.0625
1595856088154;;;;;0.01953125
1595856088215;;;-1.4296875
1595856088216;;;;;0.037109375
1595856088243;-1.6444428
1595856088268;;;-0.94921875
1595856088268;;;;0.01171875
1595856088271;;;;;0.013671875
1595856088335;;;;0.025390625
1595856088335;;;;;-0.01953125
1595856088352;-1.48888743
1595856088395;;;-1.08984375
1595856088395;;;;0.052734375
1595856088396;;;;;-0.00390625
1595856088446;;;-1.125
1595856088452;;;;0.04296875
1595856088452;;;;;0
1595856088486;;0.177777603
1595856088507;;;-1.5
1595856088507;;;;-0.0078125
1595856088509;;;;;0.046875
1595856088537;;0
1595856088575;;;-1.23242188
1595856088576;;;;;0.0390625
1595856088634;;;;;0
1595856088665;;0
1595856088685;;;;-0.0234375
1595856088686;;;;;0.037109375
1595856088757;;;;0.017578125
1595856088757;;;;;0.052734375
1595856088805;;;;0.056640625
1595856088807;;;;;0.029296875
1595856088866;;;;0.025390625
1595856088866;;;;;0.052734375
1595856088936;;;-0.8515625
1595856088936;;;;-0.0078125
1595856088936;;;;;0.046875
1595856088958;-0.86666584
1595856089024;;;-1.15234375
1595856089024;;;;-0.01953125
1595856089025;;;;;0.044921875
1595856089045;;;-0.83203125
1595856089050;;;;;0.03515625
1595856089054;;0.133333206
1595856089105;;;-1.14453125
1595856089107;;;;0.01953125
1595856089107;;;;;0.068359375
1595856089136;-1.28888762
1595856089169;;;;0.044921875
1595856089169;;;;;0.033203125
1595856089225;;;-1.08789062
1595856089228;;;;0.01953125
1595856089228;;;;;0.029296875
1595856089285;;;-0.9296875
1595856089291;;;;0.02734375
1595856089293;;;;;0.04296875
1595856089343;-1.19999886
1595856089349;;;;;0.017578125
1595856089413;;;-0.78515625
1595856089419;;;;0.01953125
1595856089423;;;;;0.00390625
1595856089457;-1.37777638
1595856089473;;;-1.02929688
1595856089476;;;;0.005859375
1595856089476;;;;;0.05078125
1595856089528;;;;0.044921875
1595856089534;;;;;0.01953125
1595856089594;;;-1.11328125
1595856089598;;;;;0.087890625
1595856089623;-1.13333225
1595856089626;;0
1595856089654;;;0.3671875
1595856089656;;;;0.0234375
1595856089660;;;;;-0.015625
1595856089713;;;0.802734375
1595856089717;;;;0
1595856089729;-1.22222102
1595856089773;;;1.57617188
1595856089775;;;;-0.03125
1595856089837;;;2.02734375
1595856089842;;;;-0.0390625
1595856089845;0.244444206
1595856089892;;;3.13671875
1595856089895;;;;-0.12109375
1595856089939;1.42222083
1595856089955;;;1.24023438
1595856089958;;;;-0.03125
1595856089958;;;;;-0.11328125
1595856090021;;;1.67773438
1595856090056;2.82221937
1595856090078;;;1.68945312
1595856090084;;;;;-0.1015625
1595856090140;;;1.8125
1595856090143;;;;;-0.11328125
1595856090165;1.59999847
1595856090206;;;1.3046875
1595856090225;1.97777581
1595856090228;;0
1595856090257;;;1.28710938
1595856090319;;;0.951171875
1595856090321;;;;0.01171875
1595856090322;;;;;-0.00390625
1595856090334;1.57777619
1595856090376;;;0.8828125
1595856090379;;;;0.07421875
1595856090441;1.19999886
1595856090445;;;0.82421875
1595856090449;;;;0.0390625
1595856090451;;;;;-0.03515625
1595856090494;;;1.22265625
1595856090501;;;;0.052734375
1595856090547;0.733332634
1595856090556;;;1.07617188
1595856090559;;;;0.029296875
1595856090559;;;;;-0.03125
1595856090627;;;0.958984375
1595856090627;;;;0.021484375
1595856090629;;;;;-0.03515625
1595856090683;;;1.06835938
1595856090686;;;;0.017578125
1595856090689;;;;;-0.04296875
1595856090742;;;1.04492188
1595856090745;;;;0.025390625
1595856090758;0.111111
1595856090809;;;1.19140625
1595856090810;;;;0.05859375
1595856090810;;;;;-0.0546875
1595856090844;0.111111
1595856090864;;;1.25390625
1595856090867;;;;0.0390625
1595856090871;;;;;-0.04296875
1595856090928;;;1.015625
1595856090934;;;;0.005859375
1595856090939;;;;;-0.0390625
1595856090946;0.622221589
1595856090946;;-0.222222
1595856090989;;;1.27734375
1595856090992;;;;0.025390625
1595856091040;1.15555441
1595856091052;;;1.04296875
1595856091054;;;;0.001953125
1595856091057;;;;;-0.04296875
1595856091113;;;1.27929688
1595856091117;;;;0.037109375
1595856091123;;;;;-0.0234375
1595856091156;1.06666565
1595856091170;;;1.27539062
1595856091171;;;;0.021484375
1595856091236;;;1.28125
1595856091236;;;;0.037109375
1595856091256;1.24444318
1595856091296;;;1.05078125
1595856091296;;;;0.025390625
1595856091356;;;1.61132812
1595856091359;;;;0.015625
1595856091360;1.31110978
1595856091417;;;1.0859375
1595856091421;;;;0.056640625
1595856091421;;;;;-0.03125
1595856091430;1.26666546
1595856091480;;;1.08789062
1595856091484;;;;0.07421875
1595856091484;;;;;-0.02734375
1595856091534;1.73333168
1595856091535;;0
1595856091564;;;-0.2890625
1595856091572;;;;-0.02734375
1595856091575;;;;;0.05078125
1595856091597;;;-1.37890625
1595856091607;;;;;0.103515625
1595856091646;1.57777619
1595856091659;;;-3.09375
1595856091659;;;;;0.171875
1595856091734;;;-3.53320312
1595856091734;;;;-0.10546875
1595856091734;;;;;0.2421875
1595856091788;;;-2.81054688
1595856091790;;;;-0.12109375
1595856091790;;;;;0.201171875
1595856091859;;;-2.453125
1595856091860;;;;;0.177734375
1595856091861;-3.06666374
1595856091903;;;-2.0390625
1595856091906;;;;;0.12109375
1595856091930;-3.13333035
1595856091966;;;-1.8984375
1595856091969;;;;;0.0859375
1595856092031;;;-1.29296875
1595856092036;;;;0.025390625
1595856092036;;;;;0.0234375
1595856092036;-2.02222013
1595856092039;;-0.111111
1595856092089;;;-1.44335938
1595856092089;;;;0.04296875
1595856092091;;;;;0.0546875
1595856092136;-1.48888743
1595856092156;;;-1.25
1595856092159;;;;0.00390625
1595856092159;;;;;0.046875
1595856092212;;;-1.05273438
1595856092216;;;;-0.0078125
1595856092219;;;;;0.080078125
1595856092266;;-0.111111
1595856092274;;;-1.23046875
1595856092285;;;;;0.068359375
1595856092358;;;-1.3984375
1595856092358;;;;0.03515625
1595856092358;;;;;0.087890625
1595856092394;;;-1.41210938
1595856092395;;;;0.060546875
1595856092397;;;;;0.060546875
1595856092455;;;-1.40820312
1595856092457;;;;0.076171875
1595856092460;;;;;0.041015625
1595856092460;;0
1595856092536;;;-1.5390625
1595856092536;;;;0.09375
1595856092537;;;;;0.080078125
1595856092577;;;-1.1484375
1595856092580;;;;0.0859375
1595856092584;;;;;0.05078125
1595856092634;-1.51110959
1595856092640;;;-1.45703125
1595856092641;;;;0.05078125
1595856092645;;;;;0.0546875
1595856092712;;;-1.05859375
1595856092715;;;;0.07421875
1595856092716;;;;;0.044921875
1595856092737;-1.51110959
1595856092737;;0
1595856092751;;;-1.375
1595856092754;;;;0.025390625
1595856092757;;;;;0.064453125
1595856092825;;;-1.02539062
1595856092825;;;;0.025390625
1595856092828;;;;;0.04296875
1595856092855;-1.42222083
1595856092896;;;-1.11132812
1595856092896;;;;0.017578125
1595856092897;;;;;0.046875
1595856092938;;;-1.22265625
1595856092939;;;;0.015625
1595856092940;;;;;0.041015625
1595856092986;-1.39999866
1595856092997;;;-1.96484375
1595856093002;;;;;0.08984375
1595856093075;;;-1.82421875
1595856093076;;;;-0.0078125
1595856093076;;;;;0.07421875
1595856093076;-1.39999866
1595856093121;;;-0.9296875
1595856093162;;;;0.001953125
1595856093162;;;;;0.080078125
1595856093166;-1.57777619
1595856093166;;0
1595856093179;;;0.01171875
1595856093182;;;;0.033203125
1595856093182;;;;;0.056640625
1595856093235;-2.02222013
1595856093241;;;1.90820312
1595856093242;;;;0.1015625
1595856093243;;;;;-0.07421875
1595856093293;;;2.24609375
1595856093296;;;;0.037109375
1595856093296;;;;;-0.18359375
1595856093339;;0
1595856093362;;;2.48046875
1595856093365;;;;-0.046875
1595856093365;;;;;-0.20703125
1595856093413;;;2.20507812
1595856093422;;;;;-0.09375
1595856093461;2.28888655
1595856093465;;0
1595856093477;;;1.9609375
1595856093477;;;;-0.01953125
1595856093485;;;;;-0.1015625
1595856093534;;;2.28320312
1595856093537;;;;-0.0234375
1595856093559;2.62221956
1595856093561;;0
1595856093601;;;1.79296875
1595856093601;;;;-0.02734375
1595856093601;;;;;-0.0625
1595856093665;;;2.078125
1595856093665;;;;0.005859375
1595856093669;;;;;-0.0859375
1595856093671;2.37777543
1595856093716;;;1.43554688
1595856093722;;;;0.00390625
1595856093728;2.15555334
1595856093775;;;2.13671875
1595856093779;;;;0.060546875
1595856093862;;;1.24804688
1595856093863;;;;0.02734375
1595856093863;2.04444242
1595856093909;;;1.75195312
1595856093909;;;;0.02734375
1595856093912;;;;;-0.0390625
1595856093940;1.62222064
1595856093961;;;1.953125
1595856093965;;;;0.048828125
1595856094016;;;1.15039062
1595856094020;;;;0.015625
1595856094022;;;;;-0.04296875
1595856094073;;;1.56054688
1595856094078;;;;0.07421875
1595856094084;0.755554795
1595856094086;;0.177777603
1595856094134;;;1.23046875
1595856094135;;;;0.0625
1595856094137;;;;;-0.0625
1595856094188;-0.111111
1595856094201;;;1.3125
1595856094202;;;;0.033203125
1595856094203;;;;;-0.07421875
1595856094265;;;1.14257812
1595856094265;;;;-0.0078125
1595856094267;;;;;-0.01953125
1595856094327;;;0.876953125
1595856094329;;;;0.0234375
1595856094332;;;;;0.01953125
1595856094365;0.155555397
1595856094383;;;0.791015625
1595856094386;;;;0.01171875
1595856094386;;;;;0.02734375
1595856094437;;;0.94921875
1595856094437;;;;;0.021484375
1595856094476;1.44444299
1595856094500;;;0.73046875
1595856094561;;;1.41601562
1595856094562;;;;0.00390625
1595856094580;0.955554605
1595856094632;;;1.0859375
1595856094632;;;;0.021484375
1595856094680;;;1.11132812
1595856094686;;;;0.00390625
1595856094694;;;;;-0.046875
1595856094700;0.911110222
1595856094738;;;0.955078125
1595856094738;;;;0.041015625
1595856094740;;;;;-0.015625
1595856094800;1.37777638
1595856094801;;;0.525390625
1595856094801;;;;0.0390625
1595856094803;;;;;0.021484375
1595856094854;;;-0.265625
1595856094854;;;;;0.015625
1595856094875;1.33333206
1595856094928;;;;0.01171875
1595856094930;;;;;0.041015625
1595856094971;0.844443619
1595856094984;;;-1.61523438
1595856094986;;;;;0.064453125
1595856095036;;;-2.8203125
1595856095038;;;;;0.1953125
1595856095074;-0.222222
1595856095101;;;-1.34375
1595856095102;;;;0.029296875
1595856095102;;;;;0.095703125
1595856095159;;;-2.125
1595856095162;;;;0.00390625
1595856095167;;;;;0.169921875
1595856095191;-1.7111094
1595856095227;;;-1.60546875
1595856095231;;;;0.015625
1595856095234;;;;;0.099609375
1595856095389;;;-1.7265625
1595856095389;;;;0.056640625
1595856095389;;;;;0.07421875
1595856095389;-2.0666647
1595856095407;;;-1.2109375
1595856095410;;;;0.048828125
1595856095413;;;;;0.05078125
1595856095456;;;-0.54296875
1595856095456;;;;0.01953125
1595856095461;;;;;0.009765625
1595856095482;-1.46666527
1595856095612;;;-1.66796875
1595856095612;;;;0.015625
1595856095613;;;;;0.09765625
1595856095642;;;-1.73046875
1595856095645;;;;0.015625
1595856095650;;;;;0.0859375
1595856095677;0.111111
1595856095679;;0.199999809
1595856095694;;;-1.70703125
1595856095704;;;;0.09765625
1595856095704;;;;;0.083984375
1595856095763;;;-1.58984375
1595856095769;;;;0.095703125
1595856095772;;;;;0.048828125
1595856095787;-0.111111
1595856095834;;;-1.42578125
1595856095837;;;;0.09765625
1595856095839;;;;;0.0546875
1595856095975;;;-1.74023438
1595856095975;;;;0.07421875
1595856095975;;;;;0.09765625
1595856095998;;-0.64444381
1595856096029;;;-2.46875
1595856096036;;;;0.072265625
1595856096036;;;;;0.126953125
1595856096068;-1.51110959
1595856096073;;-0.111111
1595856096178;;;-2.56054688
1595856096179;;;;0.017578125
1595856096187;;;;;0.125
1595856096200;;;-2.55273438
1595856096200;;;;0.013671875
1595856096201;;;;;0.0546875
1595856096360;;;-1.98046875
1595856096360;;;;-0.09765625
1595856096360;;;;;0.05859375
1595856096373;;;-2.18164062
1595856096374;;;;;0.068359375
1595856096396;-2.77777505
1595856096404;;;-1.01757812
1595856096408;;;;0.021484375
1595856096421;;;;;0.015625
1595856096451;;;-0.0625
1595856096454;;;;0.033203125
1595856096454;;;;;0.03515625
1595856096608;-2.33333111
1595856096609;;0
1595856096610;;;0.80859375
1595856096610;;;;0.068359375
1595856096621;;;;;0.02734375
1595856096633;;;2.07421875
1595856096633;;;;0.0703125
1595856096633;;;;;-0.1015625
1595856096695;;0
1595856096695;;;1.81054688
1595856096700;;;;-0.0078125
1595856096700;;;;;-0.078125
1595856096801;;;1.78125
1595856096801;;;;0.029296875
1595856096801;;;;;-0.06640625
1595856096839;;;1.76367188
1595856096874;;;;0.001953125
1595856096874;;;;;-0.1171875
1595856096879;2.15555334
1595856096884;;0
1595856096997;;;1.5
1595856096997;;;;0.078125
1595856096997;;;;;-0.05859375
1595856097008;;;2.11914062
1595856097017;;;;-0.03125
1595856097018;;;;;-0.109375
1595856097052;;;1.86914062
1595856097054;;;;;-0.109375
1595856097078;;;2.35742188
1595856097082;;;;-0.10546875
1595856097083;;;;;-0.11328125
1595856097197;2.02222013
1595856097197;;0
1595856097198;;;2.41992188
1595856097198;;;;-0.078125
1595856097198;;;;;-0.109375
1595856097235;2.08888674
1595856097236;;;1.87695312
1595856097236;;;;-0.0859375
1595856097237;;;;;-0.0859375
1595856097273;2.46666431
1595856097278;;0
1595856097285;;;2.39648438
1595856097287;;;;-0.08203125
1595856097436;;;2.38671875
1595856097436;;;;-0.03515625
1595856097503;;;1.67578125
1595856097504;1.86666489
1595856097527;;;2.05078125
1595856097532;;;;-0.0234375
1595856097634;;;1.77929688
1595856097634;;;;-0.0234375
1595856097634;;;;;-0.07421875
1595856097703;;;2.0546875
1595856097703;;;;0.033203125
1595856097705;;;;;-0.02734375
1595856097706;;0
1595856097728;;;1.97265625
1595856097829;;;;0.048828125
1595856097834;;;;;-0.046875
1595856097836;;;1.9921875
1595856097838;;;;0.02734375
1595856097838;;;;;-0.09375
1595856097856;;;1.84375
1595856097859;;;;0.064453125
1595856097861;;;;;-0.05859375
1595856097916;;;2.06445312
1595856097922;;;;0.0390625
1595856098028;;;1.59960938
1595856098028;;;;-0.0078125
1595856098028;1.59999847
1595856098062;;;1.50195312
1595856098083;2.15555334
1595856098121;;;0.916015625
1595856098229;;;;0.001953125
1595856098230;;;;;-0.0078125
1595856098236;;;0.865234375
1595856098237;;;;-0.01171875
1595856098239;;;;;0.00390625
1595856098244;1.99999809
1595856098244;;0
1595856098261;;;1.08789062
1595856098297;1.7111094
1595856098318;;;-0.1796875
1595856098324;;;;-0.01953125
1595856098327;;;;;0.02734375
1595856098430;1.15555441
1595856098435;;;-0.76171875
1595856098435;;;;0.025390625
1595856098435;;;;;0.009765625
1595856098458;;;-1.578125
1595856098462;;;;-0.01953125
1595856098463;;;;;0.125
1595856098485;1.02222121
1595856098486;;0
1595856098517;;;-3.42382812
1595856098525;;;;;0.232421875
1595856098626;;;-2.83007812
1595856098627;;;;-0.0234375
1595856098627;;;;;0.091796875
1595856098667;;;-4.18164062
1595856098668;;;;-0.03515625
1595856098668;;;;;0.236328125
1595856098683;-2.17777562
1595856098717;;;-3.62890625
1595856098718;;;;-0.046875
1595856098720;;;;;0.228515625
1595856098825;;;-3.05664062
1595856098825;;;;;0.146484375
1595856098837;-3.53332996
1595856098837;;0
1595856098855;;;-2.74804688
1595856098861;;;;0.048828125
1595856098868;;;;;0.169921875
1595856098869;-3.79999638
1595856098917;;;-2.69921875
1595856098917;;;;0.140625
1595856099021;;;;;0.15625
1595856099023;-2.71110845
1595856099023;;;-2.45507812
1595856099023;;;;0.1484375
1595856099028;;;;;0.14453125
1595856099060;;;-2.50390625
1595856099068;;;;0.12890625
1595856099069;;;;;0.13671875
1595856099220;;;-2.06445312
1595856099220;;;;0.078125
1595856099220;;;;;0.068359375
1595856099221;;;-2.70507812
1595856099221;;;;0.025390625
1595856099221;;;;;0.123046875
1595856099241;;0
1595856099263;;;-2.453125
1595856099265;;;;0.076171875
1595856099267;;;;;0.103515625
1595856099285;0
1595856099316;;;-2.74804688
1595856099418;;;;0.09375
1595856099419;;;;;0.11328125
1595856099419;;;-2.8828125
1595856099423;;;;0.10546875
1595856099436;;;;;0.05078125
1595856099469;;;-2.7265625
1595856099472;;;;0.0234375
1595856099485;;;;;0.099609375
1595856099487;-1.6444428
1595856099517;;;-2.078125
1595856099712;;;;-0.0234375
1595856099712;;;;;0.125
1595856099725;-3.28888559
1595856099725;;;-1.50585938
1595856099725;;;;0.021484375
1595856099727;;;;;0.056640625
1595856099746;;;;0.001953125
1595856099749;;;;;0.06640625
1595856099793;-1.97777581
1595856099795;;0
1595856099801;;;;0.00390625
1595856099805;;;;;0.06640625
1595856099909;;;;0.013671875
1595856099910;;;;;0.017578125
1595856099945;;;;;0.025390625
1595856100002;;;0.294921875
1595856100005;;;;0.025390625
1595856100104;;0
1595856100106;;;0.443359375
1595856100106;;;;-0.0234375
1595856100151;;;2.28320312
1595856100151;;;;-0.0703125
1595856100160;;;;;-0.171875
1595856100187;;0
1595856100203;;;1.65625
1595856100304;;;2.43164062
1595856100304;;;;0.029296875
1595856100346;;;2.65625
1595856100348;;;;0.015625
1595856100394;1.82222044
1595856100403;;;2.16015625
1595856100404;;;;0.0859375
1595856100501;;;;;-0.09375
1595856100509;;;2.640625
1595856100512;;;;-0.0234375
1595856100556;2.62221956
1595856100556;;0
1595856100565;;;4.1015625
1595856100566;;;;0.078125
1595856100569;;;;;-0.2265625
1595856100584;;;3.67773438
1595856100593;;;;0.126953125
1595856100636;2.62221956
1595856100638;;;2.796875
1595856100639;;;;0.06640625
1595856100639;;;;;-0.109375
1595856100667;3.31110787
1595856100728;;;2.7734375
1595856100728;;;;0.1171875
1595856100729;;;;;-0.125
1595856100760;;;2.4609375
1595856100765;;;;0.03515625
1595856100765;;;;;-0.1015625
1595856100818;3.88888502
1595856100818;;;2.40234375
1595856100832;;;;0.025390625
1595856100837;;;;;-0.08984375
1595856100905;2.64444184
1595856100909;;;3.03320312
1595856100909;;;;0.033203125
1595856100909;;;;;-0.1484375
1595856100940;;;1.93945312
1595856100940;;;;0.044921875
1595856100999;1.97777581
1595856100999;;;2.31445312
1595856101001;;;;-0.01953125
1595856101001;;;;;-0.12890625
1595856101088;;;2.05859375
1595856101088;;;;-0.02734375
1595856101088;;;;;-0.1328125
1595856101112;0.222222
1595856101112;;0.755554795
1595856101115;;;2.49414062
1595856101118;;;;0.009765625
1595856101185;;;2.54882812
1595856101185;;;;0.03125
1595856101185;;;;;0.021484375
1595856101186;0.977776825
1595856101217;;;2.46875
1595856101223;;;;0.041015625
1595856101269;1.91110921
1595856101280;;;2.43164062
1595856101280;;;;0.021484375
1595856101358;;;1.88085938
1595856101358;;;;0.044921875
1595856101358;;;;;-0.03125
1595856101377;2.57777524
1595856101403;;;1.60742188
1595856101403;;;;0.009765625
1595856101405;;;;;-0.0859375
1595856101459;;;1.60546875
1595856101462;;;;-0.03515625
1595856101465;;;;;-0.08984375
1595856101484;2.46666431
1595856101517;;;1.07226562
1595856101524;;;;0.02734375
1595856101534;;;;;0.0234375
1595856101577;;;1.33789062
1595856101577;;;;-0.0078125
1595856101589;1.91110921
1595856101637;;;0.3125
1595856101639;;;;0.009765625
1595856101639;;;;;0.02734375
1595856101698;1.82222044
1595856101701;;;;-0.01171875
1595856101706;;;;;0.037109375
1595856101764;;;-2.75585938
1595856101764;;;;-0.078125
1595856101770;;;;;0.140625
1595856101773;1.35555422
1595856101815;;;-3.76171875
1595856101821;;;;0.013671875
1595856101834;;;;;0.193359375
1595856101874;;0
1595856101885;;;-4.45703125
1595856101887;;;;;0.205078125
1595856101940;;;-3.77539062
1595856101942;;;;-0.015625
1595856101945;;;;;0.15625
1595856101979;-2.95555258
1595856101984;;0
1595856102001;;;-2.97851562
1595856102004;;;;0.0703125
1595856102004;;;;;0.15234375
1595856102066;;;-3.05859375
1595856102072;;;;0.1015625
1595856102072;;;;;0.19921875
1595856102085;-4.28888464
1595856102125;;;-2.48242188
1595856102128;;;;0.099609375
1595856102133;;;;;0.15234375
1595856102186;;;-2.61132812
1595856102200;;;;0.0859375
1595856102201;;;;;0.228515625
1595856102201;-3.86666298
1595856102251;;;-3.45117188
1595856102251;;;;;0.314453125
1595856102300;-2.37777543
1595856102300;;-0.111111
1595856102310;;;-3.38867188
1595856102315;;;;-0.03515625
1595856102316;;;;;0.26171875
1595856102373;;0.155555397
1595856102378;;;-3.9453125
1595856102379;;;;0
1595856102379;;;;;0.1640625
1595856102432;;;-3.42578125
1595856102434;;;;0.041015625
1595856102437;;;;;0.15625
1595856102494;;;-2.39257812
1595856102500;;;;0.080078125
1595856102501;;;;;0.0625
1595856102551;;;-2.60546875
1595856102556;;;;0.095703125
1595856102557;;;;;0.068359375
1595856102584;-1.24444318
1595856102584;;0
1595856102616;;;-2.76367188
1595856102624;;;;0.048828125
1595856102634;;;;;0.076171875
1595856102674;;;-2.46289062
1595856102677;;;;0.001953125
1595856102682;;;;;0.0703125
1595856102691;-3.64444089
1595856102740;;;-1.4453125
1595856102745;;;;;0.029296875
1595856102800;;;-2.14257812
1595856102802;;;;-0.09765625
1595856102806;;;;;0.05859375
1595856102806;-2.95555258
1595856102808;;0
1595856102858;;;-1.59960938
1595856102860;;;;-0.06640625
1595856102860;;;;;0.0078125
1595856102869;-2.82221937
1595856102918;;;-1.22265625
1595856102927;;;;-0.08203125
1595856102934;;;;;0.099609375
1595856102972;-1.97777581
1595856102981;;;-0.87109375
1595856102982;;;;-0.00390625
1595856102988;;;;;0.0625
1595856103039;;;-1.16210938
1595856103039;;;;;0.111328125
1595856103088;-2.02222013
1595856103106;;;0.53125
1595856103112;;;;0.00390625
1595856103117;;;;;0.0078125
1595856103155;;;0.9921875
1595856103162;;;;-0.0078125
1595856103165;;;;;-0.0546875
1595856103186;-1.06666565
1595856103209;;;2.30664062
1595856103212;;;;-0.0625
1595856103259;;;1.82617188
1595856103262;;;;0.005859375
1595856103292;;0
1595856103313;;;1.92382812
1595856103315;;;;-0.015625
1595856103327;;;;;-0.25390625
1595856103359;;;2.56835938
1595856103362;;;;-0.0625
1595856103366;;;;;-0.22265625
1595856103403;1.17777658
1595856103405;;0
1595856103425;;;2.29882812
1595856103432;;;;;-0.14453125
1595856103472;2.02222013
1595856103484;;;2.29101562
1595856103484;;;;0.0234375
1595856103534;;;2.50585938
1595856103536;;;;0.001953125
1595856103578;2.62221956
1595856103579;;0
1595856103587;;;2.9609375
1595856103588;;;;0.078125
1595856103633;;;2.875
1595856103634;;;;0.119140625
1595856103682;;;2.58398438
1595856103687;;;;0.193359375
1595856103690;2.64444184
1595856103737;;;2.67578125
1595856103739;;;;0.134765625
1595856103743;;;;;-0.18359375
1595856103782;;;1.7421875
1595856103784;;;;0.109375
1595856103785;;;;;-0.09765625
1595856103792;3.3555522
1595856103794;;-0.111111
1595856103844;;;2.26171875
1595856103850;;;;0.029296875
1595856103851;;;;;-0.0703125
1595856103901;2.82221937
1595856103909;;;2.27734375
1595856103909;;;;0.0078125
1595856103915;;;;;-0.0625
1595856103965;;;2.59765625
1595856103967;;;;0
1595856103967;2.28888655
1595856103970;;-0.111111
1595856104031;;;1.97265625
1595856104075;1.82222044
1595856104089;;;2.2890625
1595856104150;;;2.03320312
1595856104150;;;;-0.05078125
1595856104189;1.19999886
1595856104191;;0.333333015
1595856104206;;;2.53320312
1595856104210;;;;-0.046875
1595856104210;;;;;-0.05859375
1595856104266;;;1.89257812
1595856104266;;;;-0.0859375
1595856104291;;0.377777398
1595856104337;;;2.61132812
1595856104340;;;;;-0.04296875
1595856104388;;;2.20898438
1595856104450;;;1.70507812
1595856104457;;;;-0.06640625
1595856104468;2.51110864
1595856104515;;;1.64648438
1595856104515;;;;-0.05859375
1595856104564;;;2.01171875
1595856104575;2.31110883
1595856104651;;;2.09570312
1595856104651;;;;;-0.0078125
1595856104678;1.99999809
1595856104688;;;1.5390625
1595856104688;;;;;-0.03125
1595856104746;;;1.00976562
1595856104751;;;;;-0.0390625
1595856104787;2.28888655
1595856104828;;;0.6953125
1595856104828;;;;;-0.03125
1595856104867;;;0.033203125
1595856104867;;;;-0.02734375
1595856104869;;;;;0.00390625
1595856104917;1.88888705
1595856104933;;;-1.890625
1595856104938;;;;0.03515625
1595856104939;;;;;0.07421875
1595856104969;1.19999886
1595856104972;;0
1595856105008;;;-2.02148438
1595856105009;;;;0.07421875
1595856105009;;;;;0.16796875
1595856105038;;;-1.83007812
1595856105040;;;;0.0859375
1595856105040;;;;;0.1015625
1595856105098;-0.111111
1595856105098;;;-4.25
1595856105098;;;;;0.328125
1595856105134;;;-2.18554688
1595856105139;;;;0.052734375
1595856105139;;;;;0.08984375
1595856105186;-2.48888636
1595856105187;;0
1595856105187;;;-3.40234375
1595856105190;;;;;0.166015625
1595856105282;;;-2.7265625
1595856105282;;;;;0.189453125
1595856105293;-3.64444089
1595856105308;;;-2.56054688
1595856105309;;;;0.009765625
1595856105310;;;;;0.1796875
1595856105368;;;-2.265625
1595856105368;;;;0.017578125
1595856105369;;;;;0.259765625
1595856105396;-2.77777505
1595856105422;;;-2.62109375
1595856105458;;;;;0.236328125
1595856105470;-2.57777524
1595856105484;;;-2.19335938
1595856105487;;;;0.025390625
1595856105487;;;;;0.189453125
1595856105549;;;-2.16015625
1595856105549;;;;0.017578125
1595856105549;;;;;0.14453125
1595856105574;-1.84444261
1595856105603;;;-2.52539062
1595856105610;;;;0.056640625
1595856105616;;;;;0.15625
1595856105668;;;-2.30273438
1595856105671;;;;0.056640625
1595856105673;;;;;0.12890625
1595856105724;;;-3.2109375
1595856105732;;;;0.138671875
1595856105736;;;;;0.197265625
1595856105782;;;-2.66992188
1595856105784;;;;0.119140625
1595856105790;;;;;0.12109375
1595856105841;;;-2.96875
1595856105851;;;;0.158203125
1595856105852;;;;;0.14453125
1595856105891;-1.02222121
1595856105901;;0.622221589
1595856105903;;;-1.79296875
1595856105906;;;;0.083984375
1595856105912;;;;;0.06640625
1595856105968;;;-2.6328125
1595856105969;;;;0.142578125
1595856105969;;;;;0.1484375
1595856106001;-3.39999676
1595856106021;;;-2.05664062
1595856106033;;;;0.087890625
1595856106033;;;;;0.169921875
1595856106073;-2.71110845
1595856106086;;;-2.29296875
1595856106086;;;;0.07421875
1595856106089;;;;;0.197265625
1595856106150;;;-2.03320312
1595856106151;;;;;0.15234375
1595856106179;-2.48888636
1595856106179;;0
1595856106207;;;-1.97265625
1595856106217;;;;-0.046875
1595856106217;;;;;0.11328125
1595856106265;;;-1.38476562
1595856106270;;;;-0.078125
1595856106270;;;;;0.12109375
1595856106292;-2.35555315
1595856106335;;;-1.28125
1595856106338;;;;0.005859375
1595856106338;;;;;0.083984375
1595856106394;-2.35555315
1595856106398;;;;-0.03515625
1595856106399;;;;;0.068359375
1595856106457;;;-0.3203125
1595856106457;;;;-0.00390625
1595856106460;;;;;0.009765625
1595856106504;-1.53333187
1595856106518;;;0.380859375
1595856106521;;;;;-0.05859375
1595856106572;;;1.41210938
1595856106578;;;;0.033203125
1595856106636;;;2.41601562
1595856106642;;;;0.025390625
1595856106642;;;;;-0.26171875
1595856106680;;0
1595856106690;;;2.90429688
1595856106692;;;;0.013671875
1595856106692;;;;;-0.3203125
1595856106740;;;2.09375
1595856106742;;;;0.041015625
1595856106745;;;;;-0.171875
1595856106782;1.31110978
1595856106796;;;2.07226562
1595856106799;;;;0.08203125
1595856106850;;;1.734375
1595856106857;;;;0.162109375
1595856106858;;;;;-0.09765625
1595856106888;2.75555277
1595856106909;;;1.7421875
1595856106917;;;;0.1875
1595856106918;;;;;-0.11328125
1595856106970;;;2.07421875
1595856106972;;;;0.15625
1595856106995;2.28888655
1595856106998;;0
1595856107039;;;2.38867188
1595856107044;;;;0.099609375
1595856107044;;;;;-0.078125
1595856107100;;;2.60351562
1595856107102;;;;0.1640625
1595856107102;;;;;-0.06640625
1595856107106;2.1333313
1595856107147;;;2.65429688
1595856107151;;;;0.234375
1595856107154;;;;;-0.1015625
1595856107167;2.44444203
1595856107202;;;1.7734375
1595856107208;;;;0.0703125
1595856107260;;;1.46679688
1595856107260;;;;0.10546875
1595856107272;2.66666412
1595856107323;;;1.52929688
1595856107335;;;;0.05078125
1595856107335;;;;;-0.109375
1595856107384;2.26666451
1595856107390;;;1.38867188
1595856107391;;;;0
1595856107396;;;;;-0.04296875
1595856107438;;;1.55078125
1595856107486;1.35555422
1595856107502;;;1.38085938
1595856107505;;;;0.130859375
1595856107505;;;;;-0.01953125
1595856107559;;;;0.05078125
1595856107559;;;;;0.005859375
1595856107591;1.35555422
1595856107634;;;-0.83984375
1595856107635;;;;-0.0390625
1595856107636;;;;;-0.109375
1595856107698;1.26666546
1595856107738;;;0.001953125
1595856107795;;;-0.0390625
1595856107801;;;;;-0.015625
1595856107856;;;0.04296875
1595856107859;;;;0.033203125
1595856107859;;;;;0.158203125
1595856107935;;;;0.05859375
1595856107943;;;;;0.041015625
1595856107977;;;;0.046875
1595856107978;;;;;0.0625
1595856108040;;;;0.0234375
1595856108043;;;;;0.033203125
1595856108086;0
1595856108092;;0
1595856108099;;;0.091796875
1595856108101;;;;-0.03125
1595856108103;;;;;-0.0078125
1595856108155;;;0.0703125
1595856108161;;;;-0.046875
1595856108163;;;;;-0.04296875
1595856108192;-0.111111
1595856108239;;;0.392578125
1595856108242;;;;0.001953125
1595856108275;;;0.08203125
1595856108282;;;;0.025390625
1595856108282;;;;;0.017578125
1595856108303;0.133333206
1595856108335;;;0.138671875
1595856108337;;;;0.044921875
1595856108371;0
1595856108376;;-0.64444381
1595856108396;;;;0.046875
1595856108397;;;;;0.0234375
1595856108478;;;0.015625
1595856108479;;;;0.041015625
1595856108479;;;;;0.017578125
1595856108536;;;0.064453125
1595856108542;;;;0.052734375
1595856108543;;;;;-0.0078125
1595856108577;;;0.0625
1595856108577;;;;0.03515625
1595856108581;;;;;-0.00390625
1595856108585;;0
1595856108648;;;-0.12109375
1595856108648;;;;0.05078125
1595856108648;;;;;0.0078125
1595856108725;;;-0.0234375
1595856108732;;;;0.109375
1595856108733;;;;;0.005859375
1595856108755;;;;0.05078125
1595856108756;;;;;0.0078125
1595856108818;;;;0.005859375
1595856108819;;;;;0.05078125
1595856108906;;;;0.033203125
1595856108907;;;;;0.01953125
1595856108938;;;0.056640625
1595856108942;;;;0.068359375
1595856108997;;0
1595856108999;;;0.001953125
1595856108999;;;;0.01171875
1595856109085;;;;-0.02734375
1595856109087;;;;;0.0078125
1595856109118;;;;;0.015625
1595856109178;;;-0.0625
1595856109178;;;;;0.0078125
1595856109268;;;;0.03515625
1595856109268;;;;;0.001953125
1595856109300;;;0.01171875
1595856109300;;;;0.005859375
1595856109302;;;;;0.00390625
1595856109359;;;0.00390625
1595856109359;;;;0.001953125
1595856109359;;;;;-0.00390625
1595856109399;0
1595856109447;;;;;-0.00390625
1595856109468;;0.466666222
1595856109474;;;0
1595856109482;;;;0.00390625
1595856109482;;;;;0.001953125
1595856109538;;;0.009765625
1595856109541;;;;0.00390625
1595856109593;;;0.001953125
1595856109626;;;;0
1595856109655;;;0.001953125
1595856109656;;;;;0
1595856109684;;0
1595856109713;;;0.001953125
1595856109719;;;;0.001953125
1595856109719;;;;;0.00390625
1595856109772;;;0
1595856109773;;;;0
1595856109773;;;;;0
1595856109837;;;;;-0.00390625
1595856109893;;;0
1595856109956;;;;0
1595856109959;;;;;0.001953125
1595856110010;0
1595856110013;;;0.001953125
1595856110018;;;;;0
1595856110074;;;0
1595856110078;;;;0.001953125
1595856110078;;;;;0.001953125
1595856110137;;;;;0
1595856110192;;;;;0
1595856110255;;;0.0078125
1595856110258;;;;0
1595856110260;;;;;0.00390625
1595856110378;;;;;0
1595856110391;0
1595856110440;;;;0.005859375
1595856110455;;;;;-0.00390625
1595856110491;;;0.005859375
1595856110494;;;;0
1595856110500;;;;;-0.00390625
1595856110551;;;0.001953125
1595856110557;;;;0.001953125
1595856110557;;;;;0
1595856110609;;;-0.00390625
1595856110611;;;;0.00390625
1595856110672;;;;0
1595856110675;;;;;0
1595856110677;0
1595856110736;;;-0.0078125
1595856110739;;;;0
1595856110739;;;;;0
1595856110780;0
1595856110793;;;0.001953125
1595856110793;;;;0
1595856110855;;;0
1595856110862;;;;0
1595856110867;;;;;-0.00390625
1595856110911;;;0.001953125
1595856110911;;;;0
1595856110969;;;0.005859375
1595856110974;;;;;-0.00390625
1595856110992;0
1595856111039;;;;0.001953125
1595856111043;;;;;-0.00390625
1595856111090;;;0.001953125
1595856111092;;;;0
1595856111095;;;;;0
1595856111135;;;0
1595856111139;;;;0.00390625
1595856111140;;;;;-0.00390625
1595856111167;0
1595856111191;;;;0
1595856111191;;;;;0.001953125
1595856111241;;;-0.00390625
1595856111243;;;;0
1595856111253;;;;;0.001953125
1595856111273;;0
1595856111291;;;0.009765625
1595856111307;;;;;0
1595856111350;;;0.0078125
1595856111376;;;;;0
1595856111385;0
1595856111391;;0
1595856111398;;;0
1595856111398;;;;0
1595856111441;;;;;0.001953125
1595856111450;;;0
1595856111452;;;;0
1595856111486;0
1595856111493;;;;;0
1595856111510;;;0.0078125
1595856111548;;;;;0
1595856111570;;;0.001953125
1595856111570;;;;0
1595856111593;0
1595856111608;;;;;0
1595856111642;;;;0.001953125
1595856111667;;;;;0
1595856111688;;;0
1595856111692;;;;0
1595856111703;0
1595856111743;;;0
1595856111746;;;;0
1595856111751;;;;;0
1595856111789;;;0
1595856111789;;;;0
1595856111791;;;;;0
1595856111852;;;0
1595856111852;;;;0
1595856111854;;;;;0
1595856111879;0
1595856111908;;;0
1595856111916;;;;0
1595856111917;;;;;0
1595856111968;;;0
1595856111968;;;;0
1595856111970;;;;;0
1595856112029;;;0
1595856112032;;;;0
1595856112033;;;;;0
1595856112088;;;0
1595856112091;;;;0
1595856112093;;;;;0
1595856112096;0
1595856112151;;;0
1595856112154;;;;0
1595856112157;;;;;0
1595856112210;;;0
1595856112216;;;;0
1595856112216;;;;;0
1595856112269;;;0
1595856112269;;;;0
1595856112269;;;;;0
1595856112300;;-0.222222
1595856112330;;;0
1595856112333;;;;0
1595856112338;;;;;0
1595856112386;;;0
1595856112388;;;;0
1595856112390;;;;;0
1595856112445;;;0
1595856112446;;;;0
1595856112446;;;;;0
1595856112475;0
1595856112508;;;0
1595856112508;;;;0
1595856112509;;;;;0
1595856112566;;;0
1595856112567;;;;0
1595856112571;;;;;0
1595856112582;0
1595856112588;;0.311110795
1595856112630;;;0
1595856112632;;;;0
1595856112633;;;;;0
1595856112716;;;0.005859375
1595856112718;;;;0.009765625
1595856112719;;;;;-0.00390625
1595856112719;;0.311110795
1595856112753;;;0.001953125
1595856112753;;;;-0.00390625
1595856112755;;;;;0.001953125
1595856112807;;;;;0
1595856112807;0
1595856112807;;0
1595856112845;;;0
1595856112849;;;;0.005859375
1595856112851;;;;;0
1595856112899;0
1595856112909;;0
1595856112912;;;0
1595856112915;;;;0.00390625
1595856112920;;;;;0.001953125
1595856112987;;;0.005859375
1595856112988;;;;0
1595856112988;;;;;0.00390625
1595856112988;0
1595856113028;;;0
1595856113035;;;;;0.00390625
1595856113078;0
1595856113086;;;0
1595856113089;;;;0
1595856113169;;;-0.00390625
1595856113169;;;;-0.00390625
1595856113169;;;;;0
1595856113186;0
1595856113209;;;0
1595856113210;;;;0.00390625
1595856113212;;;;;0
1595856113288;0
1595856113348;;;0.009765625
1595856113348;;;;;0
1595856113388;;;0.005859375
1595856113391;;;;0.00390625
1595856113393;;;;;0.0078125
1595856113400;0
1595856113403;;0
1595856113457;;;0.001953125
1595856113457;;;;-0.00390625
1595856113457;;;;;0
1595856113470;0
1595856113527;;;;0.001953125
1595856113528;;;;;0.00390625
1595856113566;;;0.005859375
1595856113569;;;;0.001953125
1595856113571;;;;;0
1595856113576;0
1595856113576;;0
1595856113632;;;0
1595856113637;;;;0.001953125
1595856113690;0
1595856113692;;0
1595856113695;;;0.005859375
1595856113695;;;;0.00390625
1595856113695;;;;;0.00390625
1595856113749;;;-0.00390625
1595856113750;;;;0
1595856113752;;;;;0.001953125
1595856113785;0
1595856113788;;0
1595856113804;;;0
1595856113810;;;;0.001953125
1595856113811;;;;;0.005859375
1595856113870;;;0.001953125
1595856113871;;;;0
1595856113871;;;;;0
1595856113893;0
1595856113896;;0
1595856113922;;;0
1595856113934;;;;;0
1595856113985;;;0
1595856113991;;;;-0.00390625
1595856113992;;;;;0
1595856114008;0
1595856114052;;;-0.0078125
1595856114053;;;;0
1595856114055;;;;;0
1595856114073;0
1595856114102;;;0
1595856114105;;;;0
1595856114107;;;;;0
1595856114165;;;0
1595856114168;;;;0
1595856114169;;;;;0
1595856114183;0
1595856114186;;0
1595856114222;;;0
1595856114223;;;;0
1595856114230;;;;;0
1595856114286;;;0
1595856114286;;;;0
1595856114289;;;;;0
1595856114345;;;0
1595856114345;;;;0
1595856114345;;;;;0
1595856114386;0
1595856114402;;;0
1595856114404;;;;0
1595856114404;;;;;0
1595856114465;;;0
1595856114467;;;;0
1595856114470;;;;;0
1595856114522;;;0
1595856114526;;;;0
1595856114532;;;;;0
1595856114586;;;0
1595856114587;;;;0
1595856114587;;;;;0
1595856114605;;0.488888413
1595856114644;;;0
1595856114649;;;;0
1595856114649;;;;;0
1595856114670;0
1595856114702;;;0
1595856114702;;;;0
1595856114708;;;;;0
1595856114764;;;0
1595856114766;;;;0
1595856114769;;;;;0
1595856114779;0
1595856114819;;;0
1595856114821;;;;0
1595856114825;;;;;0
1595856114882;;;0
1595856114886;;;;0
1595856114889;;;;;0
1595856114892;0
1595856114940;;;0
1595856114943;;;;0
1595856114944;;;;;0
1595856114988;0
1595856115008;;;0
1595856115008;;;;0
1595856115012;;;;;0
1595856115062;;;0
1595856115065;;;;0
1595856115066;;;;;0
1595856115121;;;0
1595856115123;;;;0
1595856115128;;;;;0
1595856115183;;;0
1595856115183;;;;0
1595856115186;;;;;0
1595856115240;;;0
1595856115242;;;;0
1595856115242;;;;;0
1595856115276;;0.155555397
1595856115299;;;0
1595856115299;;;;0
1595856115302;;;;;0
1595856115363;;;0
1595856115366;;;;0
1595856115366;;;;;0
1595856115385;;-0.111111
1595856115419;;;0
1595856115420;;;;0
1595856115422;;;;;0
1595856115481;;;0
1595856115481;;;;0
1595856115486;;;;;0
1595856115492;0
1595856115494;;0
1595856115540;;;0
1595856115542;;;;0
1595856115542;;;;;0
1595856115597;;;0
1595856115599;;;;0
1595856115602;;;;;0
1595856115659;;;0
1595856115661;;;;0
1595856115661;;;;;0
1595856115701;;0.377777398
1595856115719;;;0
1595856115723;;;;0
1595856115727;;;;;0
1595856115767;0
1595856115782;;;0
1595856115783;;;;0
1595856115783;;;;;0
1595856115839;;;0
1595856115841;;;;0
1595856115841;;;;;0
1595856115874;0
1595856115877;;0
1595856115900;;;0
1595856115901;;;;0
1595856115903;;;;;0
1595856115959;;;0
1595856115959;;;;0
1595856115961;;;;;0
1595856115983;;0
1595856116034;;;0
1595856116040;;;;0
1595856116046;;;;;0
1595856116078;;;0
1595856116078;;;;0
1595856116079;;;;;0
1595856116137;;;0
1595856116140;;;;0
1595856116143;;;;;0
1595856116191;0
1595856116198;;0.377777398
1595856116203;;;0
1595856116203;;;;0
1595856116203;;;;;0
1595856116258;;;0
1595856116260;;;;0
1595856116261;;;;;0
1595856116302;;0.133333206
1595856116319;;;0
1595856116325;;;;0
1595856116325;;;;;0
1595856116377;;;0
1595856116378;;;;0
1595856116382;;;;;0
1595856116438;;;0
1595856116441;;;;0
1595856116442;;;;;0
1595856116475;0
1595856116512;;;0
1595856116512;;;;0
1595856116512;;;;;0
1595856116562;;;0
1595856116594;;;;0
1595856116594;;;;;0
1595856116599;;0
1595856116621;;;0
1595856116623;;;;0
1595856116624;;;;;0
1595856116687;;;0
1595856116688;;;;0
1595856116688;;;;;0
1595856116693;0
1595856116773;;;0
1595856116774;;;;0
1595856116776;;;;;0
1595856116799;;;0
1595856116802;;;;0
1595856116804;;;;;0
1595856116866;;;0
1595856116867;;;;0
1595856116867;;;;;0
1595856116917;;;0
1595856116920;;;;0
1595856116956;;;;;0
1595856116977;;;0
1595856116980;;;;0
1595856116980;;;;;0
1595856117052;;;0
1595856117052;;;;0
1595856117052;;;;;0
1595856117085;;0.577777207
1595856117099;;;0
1595856117102;;;;0
1595856117134;;;;;0
1595856117154;;;0
1595856117157;;;;0
1595856117157;;;;;0
1595856117223;0
1595856117226;;;0
1595856117227;;;;0
1595856117227;;;;;0
1595856117276;;;0
1595856117276;;;;0
1595856117278;;;;;0
1595856117338;;;0
1595856117339;;;;0
1595856117341;;;;;0
1595856117406;;;0
1595856117406;;;;0
1595856117406;;;;;0
1595856117406;;0.199999809
1595856117453;;;0
1595856117455;;;;0
1595856117459;;;;;0
1595856117507;;0.222222
1595856117517;;;0
1595856117517;;;;0
1595856117518;;;;;0
1595856117579;;;0
1595856117583;;;;0
1595856117583;;;;;0
1595856117637;;;0
1595856117637;;;;0
1595856117637;;;;;0
1595856117681;;0.133333206
1595856117701;;;0
1595856117701;;;;0
1595856117702;;;;;0
1595856117756;;;0
1595856117757;;;;0
1595856117759;;;;;0
1595856117785;0
1595856117823;;;0
1595856117824;;;;0
1595856117824;;;;;0
1595856117873;;;0
1595856117875;;;;0
1595856117878;;;;;0
1595856117893;0
1595856117946;;;0
1595856117946;;;;0
1595856117947;;;;;0
1595856117994;;;0
1595856117997;;;;0
1595856118001;;;;;0
1595856118010;0
1595856118010;;0
1595856118054;;;0
1595856118055;;;;0
1595856118055;;;;;0
1595856118085;;0
1595856118124;;;0
1595856118124;;;;0
1595856118126;;;;;0
1595856118175;;;0
1595856118184;;;;0
1595856118184;;;;;0
1595856118187;;0
1595856118238;;;0
1595856118238;;;;0
1595856118241;;;;;0
1595856118287;0
1595856118288;;0
1595856118296;;;0
1595856118298;;;;0
1595856118300;;;;;0
1595856118356;;;0
1595856118359;;;;0
1595856118359;;;;;0
1595856118387;0
1595856118394;;0
1595856118412;;;0
1595856118418;;;;0
1595856118419;;;;;0
1595856118473;;;0
1595856118476;;;;0
1595856118477;;;;;0
1595856118498;0
1595856118546;;;0
1595856118546;;;;0
1595856118549;;;;;0
1595856118590;;;0
1595856118593;;;;0
1595856118598;;;;;0
1595856118611;;0
1595856118654;;;0
1595856118659;;;;0
1595856118660;;;;;0
1595856118680;;0
1595856118712;;;0
1595856118716;;;;0
1595856118717;;;;;0
1595856118772;;;0
1595856118778;;;;0
1595856118782;;;;;0
1595856118783;0
1595856118785;;0
1595856118835;;;0
1595856118836;;;;0
1595856118838;;;;;0
1595856118882;0
1595856118887;;0
1595856118899;;;0
1595856118901;;;;0
1595856118902;;;;;0
1595856118951;;;0
1595856118954;;;;0
1595856118956;;;;;0
1595856118988;0
1595856118994;;0
1595856119011;;;0
1595856119015;;;;0
1595856119016;;;;;0
1595856119078;;;0
1595856119078;;;;0
1595856119082;;;;;0
1595856119094;0
1595856119098;;0
1595856119138;;;0
1595856119141;;;;0
1595856119144;;;;;0
1595856119190;;;0
1595856119193;;;;0
1595856119193;;;;;0
1595856119201;0
1595856119251;;;0
1595856119254;;;;0
1595856119255;;;;;0
1595856119280;0
1595856119280;;0
1595856119311;;;0
1595856119316;;;;0
1595856119316;;;;;0
1595856119384;;;0
1595856119384;;;;0
1595856119386;;;;;0
1595856119399;;0
1595856119438;;;0
1595856119441;;;;0
1595856119441;;;;;0
1595856119488;0
1595856119490;;;0
1595856119495;;;;0
1595856119500;;;;;0
1595856119550;;;0
1595856119551;;;;0
1595856119551;;;;;0
1595856119610;;;0
1595856119610;;;;0
1595856119613;;;;;0
1595856119673;;;0
1595856119678;;;;0
1595856119684;;;;;0
1595856119704;;0
1595856119738;;;0
1595856119740;;;;0
1595856119740;;;;;0
1595856119790;;;0
1595856119790;;;;0
1595856119790;;;;;0
1595856119803;0
1595856119849;;;0
1595856119851;;;;0
1595856119852;;;;;0
1595856119913;;;0
1595856119915;;;;0
1595856119916;;;;;0
1595856119971;;;0
1595856119973;;;;0
1595856119975;;;;;0
1595856119993;;0
1595856120038;;;0
1595856120040;;;;0
1595856120040;;;;;0
1595856120091;;;0
1595856120094;;;;0
1595856120097;;;;;0
1595856120151;;;0
1595856120151;;;;0
1595856120154;;;;;0
1595856120201;0
1595856120208;;;0
1595856120210;;;;0
1595856120211;;;;;0
1595856120269;;;0
1595856120269;;;;0
1595856120272;;;;;0
