Time;pv/sensors/flowX;pv/sensors/flowY;pv/sensors/gyroX;pv/sensors/gyroY;pv/sensors/gyroZ
1595513274559;;;0
1595513274559;;;;0
1595513274559;;;;;0
1595513274586;1
1595513274586;;-1
1595513274625;;;0
1595513274637;;;;0
1595513274638;;;;;0
1595513274661;;;0
1595513274663;;;;0
1595513274667;;;;;0
1595513274713;-1
1595513274714;;1
1595513274736;;;0
1595513274738;;;;0
1595513274738;;;;;0
1595513274804;;;0
1595513274805;;;;0
1595513274805;;;;;0
1595513274806;0
1595513274818;;0
1595513274848;;;0
1595513274849;;;;0
1595513274852;;;;;0
1595513274911;1
1595513274911;;0
1595513274920;;;0
1595513274921;;;;0
1595513274924;;;;;0
1595513274982;;;0
1595513274984;;;;0
1595513274984;;;;;0
1595513275005;1
1595513275017;;0
1595513275018;;;0
1595513275019;;;;0
1595513275020;;;;;0
1595513275096;-1
1595513275096;;0
1595513275100;;;0
1595513275100;;;;0
1595513275101;;;;;0
1595513275164;;;0
1595513275165;;;;0
1595513275166;;;;;0
1595513275187;2
1595513275188;;1
1595513275252;;;0
1595513275253;;;;0
1595513275256;;;;;0
1595513275289;;;0
1595513275289;;;;0
1595513275299;;;;;0
1595513275299;-3
1595513275303;;-1
1595513275359;;;0
1595513275373;;;;0
1595513275373;;;;;0
1595513275426;;;0
1595513275428;;;;0
1595513275428;;;;;0
1595513275429;0
1595513275429;;0
1595513275455;;;0
1595513275477;;;;0
1595513275482;;;;;0
1595513275501;;;0
1595513275502;;;;0
1595513275506;;;;;0
1595513275522;2
1595513275522;;0
1595513275561;;;0
1595513275563;;;;0
1595513275565;;;;;0
1595513275588;-2
1595513275591;;-1
1595513275605;;;0
1595513275606;;;;0
1595513275606;;;;;0
1595513275662;;;0
1595513275666;;;;0
1595513275669;;;;;0
1595513275692;1
1595513275706;;1
1595513275753;;;0
1595513275754;;;;0
1595513275754;;;;;0
1595513275792;;;0
1595513275805;;;;0
1595513275807;;;;;0
1595513275807;0
1595513275810;;0
1595513275839;;;0
1595513275839;;;;0
1595513275839;;;;;0
1595513275893;;;0
1595513275909;;;;0
1595513275910;;;;;0
1595513275912;0
1595513275912;;0
1595513275954;;;0
1595513275955;;;;0
1595513275955;;;;;0
1595513276023;-1
1595513276023;;-1
1595513276023;;;0
1595513276038;;;;0
1595513276038;;;;;0
1595513276088;1
1595513276093;;0
1595513276094;;;0
1595513276095;;;;0
1595513276095;;;;;0
1595513276140;;;0
1595513276142;;;;0
1595513276143;;;;;0
1595513276188;0
1595513276204;;1
1595513276222;;;0
1595513276238;;;;0
1595513276240;;;;;0
1595513276265;;;0
1595513276265;;;;0
1595513276266;;;;;0
1595513276289;0
1595513276303;;0
1595513276316;;;0
1595513276319;;;;0
1595513276319;;;;;0
1595513276391;;;0
1595513276391;;;;0
1595513276405;;;;;0
1595513276407;1
1595513276407;;0
1595513276449;;;-0.01953125
1595513276449;;;;0.048828125
1595513276451;;;;;0.123046875
1595513276506;;;-0.046875
1595513276506;;;;0.0390625
1595513276521;;;;;0.033203125
1595513276522;-2
1595513276524;;-2
1595513276558;;;0.005859375
1595513276573;;;;0.03515625
1595513276577;;;;;-0.005859375
1595513276609;;;-0.046875
1595513276615;;;;0.3125
1595513276619;;;;;0.005859375
1595513276620;0
1595513276620;;-3
1595513276657;;;-0.052734375
1595513276658;;;;0.455078125
1595513276658;;;;;0.00390625
1595513276703;5
1595513276704;;-2
1595513276721;;;0.21875
1595513276724;;;;0.23046875
1595513276740;;;;;0.005859375
1595513276788;;;0.025390625
1595513276789;;;;0.01953125
1595513276790;;;;;-0.0234375
1595513276804;0
1595513276806;;6
1595513276841;;;-0.083984375
1595513276842;;;;-0.23828125
1595513276848;;;;;0.03515625
1595513276893;;;-0.134765625
1595513276893;;;;-0.34375
1595513276893;;;;;0.017578125
1595513276897;0
1595513276898;;19
1595513276943;;;0.064453125
1595513276943;;;;-0.341796875
1595513276944;;;;;0.056640625
1595513276992;;;0.005859375
1595513276993;;;;-0.099609375
1595513276994;;;;;0.005859375
1595513276998;1
1595513277001;;0
1595513277046;;;0.00390625
1595513277048;;;;-0.00390625
1595513277048;;;;;0.111328125
1595513277096;;;-0.021484375
1595513277097;;;;0.166015625
1595513277101;;;;;0.03515625
1595513277101;0
1595513277126;;-25
1595513277164;;;-0.03515625
1595513277164;;;;0.302734375
1595513277164;;;;;0.0703125
1595513277209;;;-0.048828125
1595513277210;;;;0.373046875
1595513277214;;;;;0.103515625
1595513277217;0
1595513277220;;-34
1595513277261;;;-0.001953125
1595513277261;;;;-0.021484375
1595513277264;;;;;0.154296875
1595513277292;8
1595513277293;;4
1595513277338;;;-0.013671875
1595513277341;;;;0.1484375
1595513277342;;;;;0.142578125
1595513277383;-1
1595513277386;;43
1595513277389;;;0.158203125
1595513277409;;;;0.203125
1595513277422;;;;;-0.037109375
1595513277456;;;0.052734375
1595513277457;;;;0.173828125
1595513277473;;;;;-0.17578125
1595513277508;-10
1595513277521;;18
1595513277521;;;0.037109375
1595513277521;;;;0.052734375
1595513277525;;;;;-0.193359375
1595513277565;;;0.041015625
1595513277566;;;;-0.11328125
1595513277566;;;;;-0.22265625
1595513277620;-17
1595513277623;;3
1595513277626;;;0.00390625
1595513277640;;;;-0.185546875
1595513277641;;;;;-0.16796875
1595513277689;;;-0.013671875
1595513277690;;;;-0.177734375
1595513277690;;;;;0.0625
1595513277714;-1
1595513277716;;-37
1595513277718;;;-0.0703125
1595513277723;;;;-0.1796875
1595513277740;;;;;0.236328125
1595513277786;17
1595513277790;;-27
1595513277805;;;-0.015625
1595513277806;;;;-0.1171875
1595513277809;;;;;0.375
1595513277863;;;-0.021484375
1595513277865;;;;0.095703125
1595513277865;;;;;0.3203125
1595513277891;10
1595513277902;;28
1595513277905;;;0.09375
1595513277906;;;;0.158203125
1595513277907;;;;;0.326171875
1595513277974;;;0.009765625
1595513277974;;;;0.21484375
1595513277975;;;;;0.1796875
1595513277996;-6
1595513277997;;48
1595513278005;;;-0.01171875
1595513278021;;;;0.23046875
1595513278022;;;;;0.021484375
1595513278076;;;0.044921875
1595513278090;;;;0.193359375
1595513278096;;;;;-0.203125
1595513278099;-11
1595513278099;;28
1595513278125;;;0.044921875
1595513278139;;;;0.111328125
1595513278140;;;;;-0.25390625
1595513278223;;;0.037109375
1595513278224;;;;-0.150390625
1595513278224;;;;;-0.201171875
1595513278225;1
1595513278226;;-45
1595513278267;;;0.0234375
1595513278268;;;;-0.25
1595513278268;;;;;-0.099609375
1595513278319;14
1595513278320;;-60
1595513278320;;;-0.01953125
1595513278324;;;;-0.265625
1595513278345;;;;;0.080078125
1595513278365;;;-0.28125
1595513278368;;;;-0.181640625
1595513278372;;;;;0.33203125
1595513278392;10
1595513278392;;-15
1595513278444;;;0.0234375
1595513278444;;;;-0.09375
1595513278444;;;;;0.392578125
1595513278490;8
1595513278491;;39
1595513278518;;;0.00390625
1595513278518;;;;0.05859375
1595513278518;;;;;0.3203125
1595513278569;;;0.044921875
1595513278572;;;;0.16015625
1595513278573;;;;;0.2109375
1595513278621;-5
1595513278623;;70
1595513278629;;;0.021484375
1595513278630;;;;0.14453125
1595513278631;;;;;-0.01171875
1595513278708;;;0.009765625
1595513278722;;;;0.17578125
1595513278723;;;;;-0.1171875
1595513278725;-14
1595513278725;;36
1595513278732;;;0.01953125
1595513278736;;;;0.12109375
1595513278737;;;;;-0.140625
1595513278805;;;0.03125
1595513278808;;;;0.009765625
1595513278820;;;;;-0.119140625
1595513278823;-4
1595513278823;;-23
1595513278873;;;0.033203125
1595513278873;;;;-0.078125
1595513278876;;;;;-0.076171875
1595513278926;1
1595513278931;;-51
1595513278937;;;0
1595513278973;;;;-0.140625
1595513278974;;;;;0.02734375
1595513279000;15
1595513279000;;-36
1595513279007;;;-0.087890625
1595513279032;;;;-0.173828125
1595513279032;;;;;0.13671875
1595513279079;;;-0.314453125
1595513279080;;;;-0.17578125
1595513279083;;;;;0.224609375
1595513279086;11
1595513279088;;13
1595513279157;;;0.0234375
1595513279160;;;;-0.0859375
1595513279175;;;;;0.17578125
1595513279188;;;-0.001953125
1595513279190;;;;0.056640625
1595513279191;;;;;0.15234375
1595513279193;-8
1595513279210;;79
1595513279262;;;-0.0078125
1595513279264;;;;0.15234375
1595513279264;;;;;0.080078125
1595513279295;;;0.119140625
1595513279296;;;;0.146484375
1595513279297;;;;;0.00390625
1595513279326;-16
1595513279327;;30
1595513279339;;;0.078125
1595513279339;;;;0.1171875
1595513279358;;;;;-0.04296875
1595513279423;;;0
1595513279424;;;;0.033203125
1595513279441;;;;;-0.09765625
1595513279442;-16
1595513279445;;-17
1595513279453;;;0.046875
1595513279453;;;;-0.046875
1595513279456;;;;;-0.095703125
1595513279524;5
1595513279524;;-69
1595513279532;;;-0.173828125
1595513279535;;;;-0.158203125
1595513279557;;;;;-0.05078125
1595513279582;11
1595513279587;;-33
1595513279590;;;-0.0234375
1595513279593;;;;-0.138671875
1595513279609;;;;;0
1595513279644;;;-0.00390625
1595513279645;;;;-0.107421875
1595513279651;;;;;0.09765625
1595513279686;2
1595513279689;;44
1595513279705;;;0.03125
1595513279709;;;;-0.08984375
1595513279723;;;;;0.123046875
1595513279756;;;-0.001953125
1595513279757;;;;-0.03515625
1595513279767;;;;;0.087890625
1595513279805;-16
1595513279805;;86
1595513279822;;;-0.017578125
1595513279824;;;;0.07421875
1595513279827;;;;;0.060546875
1595513279872;;;-0.01171875
1595513279873;;;;0.123046875
1595513279876;;;;;0.01171875
1595513279922;-18
1595513279924;;10
1595513279926;;;-0.005859375
1595513279926;;;;0.115234375
1595513279929;;;;;0.005859375
1595513279967;;;0.009765625
1595513279968;;;;0.017578125
1595513279971;;;;;-0.0625
1595513280024;-3
1595513280025;;-32
1595513280028;;;0.009765625
1595513280030;;;;-0.06640625
1595513280031;;;;;-0.091796875
1595513280077;;;0.021484375
1595513280077;;;;-0.201171875
1595513280078;;;;;-0.076171875
1595513280087;21
1595513280091;;-81
1595513280122;;;0.025390625
1595513280137;;;;-0.21484375
1595513280138;;;;;-0.013671875
1595513280172;;;0.017578125
1595513280197;;;;-0.13671875
1595513280199;;;;;0.03125
1595513280201;0
1595513280201;;12
1595513280243;;;0.0078125
1595513280244;;;;-0.0625
1595513280244;;;;;0.056640625
1595513280286;-30
1595513280290;;79
1595513280306;;;0.00390625
1595513280308;;;;-0.087890625
1595513280324;;;;;0.029296875
1595513280357;;;0.009765625
1595513280358;;;;-0.099609375
1595513280368;;;;;-0.005859375
1595513280408;2
1595513280415;;1
1595513280419;;;-0.005859375
1595513280419;;;;-0.017578125
1595513280419;;;;;0.001953125
1595513280455;;;-0.005859375
1595513280463;;;;0.009765625
1595513280464;;;;;-0.00390625
1595513280507;4
1595513280522;;-4
1595513280524;;;-0.001953125
1595513280526;;;;0
1595513280526;;;;;-0.025390625
1595513280568;;;-0.00390625
1595513280592;;;;-0.005859375
1595513280593;;;;;-0.03125
1595513280612;-9
1595513280614;;6
1595513280637;;;0.001953125
1595513280639;;;;0.005859375
1595513280654;;;;;-0.130859375
1595513280683;9
1595513280686;;-4
1595513280705;;;0
1595513280705;;;;0
1595513280708;;;;;-0.125
1595513280753;;;-0.001953125
1595513280754;;;;0.029296875
1595513280756;;;;;-0.244140625
1595513280795;-3
1595513280795;;1
1595513280800;;;-0.00390625
1595513280801;;;;0.009765625
1595513280802;;;;;-0.1796875
1595513280851;;;-0.005859375
1595513280851;;;;0.005859375
1595513280853;;;;;0
1595513280894;-3
1595513280894;;0
1595513280903;;;0.00390625
1595513280905;;;;0.005859375
1595513280922;;;;;0.005859375
1595513280954;;;0.001953125
1595513280954;;;;0.009765625
1595513280954;;;;;0
1595513281006;4
1595513281008;;-4
1595513281020;;;-0.00390625
1595513281024;;;;-0.005859375
1595513281024;;;;;0
1595513281072;;;-0.001953125
1595513281073;;;;0.001953125
1595513281077;;;;;-0.001953125
1595513281108;0
1595513281109;;1
1595513281127;;;-0.001953125
1595513281129;;;;0
1595513281130;;;;;0
1595513281160;;;0
1595513281191;;;;-0.001953125
1595513281192;;;;;0.001953125
1595513281207;0
1595513281227;;0
1595513281246;;;0.00390625
1595513281248;;;;0
1595513281248;;;;;-0.00390625
1595513281278;;;0
1595513281278;;;;-0.005859375
1595513281286;;;;;0
1595513281307;1
1595513281314;;-1
1595513281326;;;-0.009765625
1595513281329;;;;0.00390625
1595513281331;;;;;0
1595513281387;;;-0.00390625
1595513281389;;;;0.00390625
1595513281389;;;;;-0.00390625
1595513281409;0
1595513281412;;1
1595513281456;;;0.001953125
1595513281456;;;;0.001953125
1595513281459;;;;;-0.001953125
1595513281496;0
1595513281499;;0
1595513281519;;;0
1595513281520;;;;0
1595513281523;;;;;-0.001953125
1595513281575;;;0
1595513281591;;;;-0.001953125
1595513281592;;;;;0
1595513281599;0
1595513281603;;0
1595513281627;;;-0.00390625
1595513281627;;;;-0.001953125
1595513281629;;;;;0
1595513281685;;;-0.001953125
1595513281688;;;;0.00390625
1595513281690;;;;;0
1595513281720;0
1595513281724;;-1
1595513281758;;;-0.00390625
1595513281774;;;;0
1595513281775;;;;;-0.001953125
1595513281805;;;0.005859375
1595513281806;;;;-0.001953125
1595513281808;;;;;-0.001953125
1595513281828;0
1595513281828;;0
1595513281855;;;0.00390625
1595513281858;;;;0.029296875
1595513281870;;;;;0.00390625
1595513281885;0
1595513281886;;1
1595513281907;;;0.00390625
1595513281907;;;;0.009765625
1595513281918;;;;;0
1595513281958;;;0.00390625
1595513281969;;;;0.001953125
1595513281970;;;;;0
1595513281986;0
1595513281991;;-1
1595513282019;;;-0.001953125
1595513282019;;;;0.005859375
1595513282020;;;;;-0.001953125
1595513282061;;;-0.00390625
1595513282061;;;;0
1595513282066;;;;;-0.001953125
1595513282110;0
1595513282110;;0
1595513282116;;;0
1595513282116;;;;0.00390625
1595513282118;;;;;-0.001953125
1595513282176;;;0.001953125
1595513282179;;;;-0.001953125
1595513282180;;;;;0
1595513282211;0
1595513282212;;0
1595513282223;;;0
1595513282224;;;;0
1595513282224;;;;;-0.001953125
1595513282261;;;0
1595513282268;;;;0.001953125
1595513282271;;;;;-0.001953125
1595513282305;0
1595513282310;;0
1595513282339;;;0.001953125
1595513282340;;;;-0.001953125
1595513282353;;;;;0
1595513282365;;;-0.005859375
1595513282369;;;;-0.005859375
1595513282370;;;;;0
1595513282398;0
1595513282398;;0
1595513282432;;;-0.00390625
1595513282437;;;;0.001953125
1595513282438;;;;;0
1595513282500;0
1595513282501;;1
1595513282502;;;0.00390625
1595513282502;;;;-0.001953125
1595513282506;;;;;0
1595513282588;;;0.001953125
1595513282588;;;;-0.001953125
1595513282588;;;;;0
1595513282630;0
1595513282630;;0
1595513282633;;;-0.001953125
1595513282636;;;;0.001953125
1595513282636;;;;;-0.00390625
1595513282695;;;0.001953125
1595513282697;;;;0.00390625
1595513282697;;;;;0
1595513282703;0
1595513282703;;0
1595513282726;;;0.00390625
1595513282726;;;;0.001953125
1595513282729;;;;;0.00390625
1595513282808;;;0.001953125
1595513282841;;;;0
1595513282844;;;;;-0.005859375
1595513282851;0
1595513282873;;0
1595513282915;;;-0.005859375
1595513282916;;;;0.001953125
1595513282918;;;;;0.001953125
1595513282951;;;0
1595513282951;;;;0.00390625
1595513282953;;;;;-0.00390625
1595513282954;0
1595513282956;;-1
1595513282992;;;-0.001953125
1595513282994;;;;-0.00390625
1595513282996;;;;;-0.001953125
1595513283003;0
1595513283003;;0
1595513283035;;;-0.00390625
1595513283035;;;;-0.001953125
1595513283035;;;;;-0.001953125
1595513283071;;;0.001953125
1595513283088;;;;0
1595513283088;;;;;0
1595513283104;0
1595513283104;;0
1595513283139;;;-0.001953125
1595513283139;;;;0.00390625
1595513283139;;;;;0.001953125
1595513283189;;;0
1595513283189;;;;0
1595513283189;;;;;0
1595513283217;0
1595513283218;;0
1595513283240;;;0
1595513283242;;;;0
1595513283251;;;;;0
