Time;pv/sensors/flowX;pv/sensors/flowY;pv/sensors/gyroX;pv/sensors/gyroY;pv/sensors/gyroZ
1595852654816;;;0
1595852654818;;;;0
1595852654821;;;;;0
1595852654853;0
1595852654853;;-1
1595852654880;;;0
1595852654880;;;;0
1595852654881;;;;;0
1595852654942;;;0
1595852654946;;;;0
1595852654954;;;;;0
1595852654954;1
1595852654956;;1
1595852654996;;;0
1595852654999;;;;0
1595852655001;;;;;0
1595852655051;1
1595852655054;;-1
1595852655060;;;0
1595852655062;;;;0
1595852655068;;;;;0
1595852655118;;;0
1595852655121;;;;0
1595852655123;;;;;0
1595852655169;-1
1595852655169;;1
1595852655179;;;0
1595852655180;;;;0
1595852655182;;;;;0
1595852655242;;;0
1595852655242;;;;0
1595852655242;;;;;0
1595852655268;0
1595852655275;;-1
1595852655298;;;0
1595852655302;;;;0
1595852655303;;;;;0
1595852655381;;;0
1595852655381;;;;0
1595852655381;;;;;0
1595852655382;1
1595852655382;;0
1595852655416;;;0
1595852655417;;;;0
1595852655417;;;;;0
1595852655436;0
1595852655446;;0
1595852655475;;;0
1595852655477;;;;0
1595852655481;;;;;0
1595852655538;;;0
1595852655552;;;;0
1595852655553;;;;;0
1595852655553;-1
1595852655554;;0
1595852655596;;;0
1595852655596;;;;0
1595852655598;;;;;0
1595852655647;0
1595852655649;;0
1595852655661;;;0
1595852655669;;;;0
1595852655669;;;;;0
1595852655714;;;0
1595852655719;;;;0
1595852655721;;;;;0
1595852655759;-1
1595852655769;;1
1595852655775;;;0
1595852655775;;;;0
1595852655778;;;;;0
1595852655842;;;0
1595852655845;;;;0
1595852655848;;;;;0
1595852655870;0
1595852655871;;0
1595852655895;;;0
1595852655901;;;;0
1595852655903;;;;;0
1595852655955;;;0
1595852655956;;;;0
1595852655959;;;;;0
1595852655985;-1
1595852655985;;-1
1595852656018;;;0
1595852656018;;;;0
1595852656026;;;;;0
1595852656041;0
1595852656053;;1
1595852656077;;;0
1595852656077;;;;0
1595852656082;;;;;0
1595852656134;;;0
1595852656140;;;;0
1595852656149;;;;;0
1595852656158;0
1595852656170;;0
1595852656194;;;0
1595852656201;;;;0
1595852656201;;;;;0
1595852656248;0
1595852656258;;0
1595852656260;;;0
1595852656261;;;;0
1595852656261;;;;;0
1595852656326;;;0
1595852656326;;;;0
1595852656329;;;;;0
1595852656358;0
1595852656369;;0
1595852656375;;;0
1595852656377;;;;0
1595852656378;;;;;0
1595852656442;;;0
1595852656445;;;;0
1595852656448;;;;;0
1595852656470;0
1595852656473;;26
1595852656494;;;0
1595852656495;;;;0
1595852656500;;;;;0
1595852656553;;;0
1595852656555;;;;0
1595852656555;;;;;0
1595852656580;1
1595852656587;;0
1595852656613;;;0
1595852656615;;;;0
1595852656617;;;;;0
1595852656654;0
1595852656655;;0
1595852656664;;;0
1595852656665;;;;0
1595852656666;;;;;0
1595852656715;;;0
1595852656720;;;;0
1595852656720;;;;;0
1595852656753;0
1595852656757;;0
1595852656773;;;0
1595852656776;;;;0
1595852656781;;;;;0
1595852656831;;;0
1595852656839;;;;0
1595852656841;;;;;0
1595852656855;-1
1595852656858;;1
1595852656894;;;0
1595852656894;;;;0
1595852656894;;;;;0
1595852656953;;;0
1595852656953;;;;0
1595852656955;;;;;0
1595852656961;0
1595852656969;;-2
1595852657012;;;0
1595852657012;;;;0
1595852657015;;;;;0
1595852657062;0
1595852657068;;1
1595852657086;;;0
1595852657089;;;;0
1595852657089;;;;;0
1595852657137;;;0.0078125
1595852657144;;;;-0.001953125
1595852657153;;;;;-0.064453125
1595852657159;2
1595852657159;;1
1595852657192;;;0.0078125
1595852657201;;;;0
1595852657201;;;;;-0.06640625
1595852657247;;;-0.048828125
1595852657254;;;;-0.08203125
1595852657257;;;;;0.015625
1595852657259;-2
1595852657268;;-1
1595852657304;;;0.01171875
1595852657304;;;;0.005859375
1595852657305;;;;;0.078125
1595852657354;0
1595852657359;;1
1595852657371;;;-0.001953125
1595852657371;;;;0
1595852657371;;;;;-0.052734375
1595852657415;;;-0.001953125
1595852657416;;;;-0.03515625
1595852657417;;;;;-0.13671875
1595852657469;0
1595852657470;;1
1595852657475;;;-0.0078125
1595852657482;;;;-0.076171875
1595852657483;;;;;-0.107421875
1595852657539;;;0.009765625
1595852657540;;;;-0.1953125
1595852657540;;;;;-0.23828125
1595852657570;-3
1595852657570;;-3
1595852657599;;;-0.044921875
1595852657604;;;;-0.09765625
1595852657604;;;;;-0.294921875
1595852657660;;;-0.158203125
1595852657667;;;;-0.083984375
1595852657671;;;;;-0.224609375
1595852657674;-1
1595852657677;;2
1595852657712;;;-0.0078125
1595852657716;;;;-0.072265625
1595852657716;;;;;-0.26953125
1595852657745;-1
1595852657754;;-1
1595852657783;;;-0.025390625
1595852657786;;;;-0.072265625
1595852657790;;;;;-0.25
1595852657845;;;0.169921875
1595852657846;;;;0.0625
1595852657846;;;;;-0.255859375
1595852657848;0
1595852657851;;-7
1595852657924;;;0.25
1595852657926;;;;0.02734375
1595852657926;;;;;-0.17578125
1595852657970;2
1595852657970;;-1
1595852657971;;;0.73828125
1595852657971;;;;-0.07421875
1595852657971;;;;;-0.1015625
1595852658019;;;1.07226562
1595852658019;;;;-0.16015625
1595852658028;;;;;-0.103515625
1595852658060;6
1595852658068;;4
1595852658077;;;1.73632812
1595852658078;;;;-0.232421875
1595852658078;;;;;-0.01953125
1595852658131;;;1.97851562
1595852658138;;;;-0.21875
1595852658140;;;;;-0.013671875
1595852658162;-3
1595852658170;;-3
1595852658190;;;2.13867188
1595852658192;;;;-0.15625
1595852658204;;;;;0.03125
1595852658261;;;1.5625
1595852658261;;;;-0.021484375
1595852658261;;;;;-0.0078125
1595852658284;-9
1595852658285;;-24
1595852658316;;;1.89453125
1595852658317;;;;-0.00390625
1595852658319;;;;;-0.029296875
1595852658341;-2
1595852658341;;2
1595852658381;;;0.7265625
1595852658381;;;;-0.01953125
1595852658384;;;;;-0.103515625
1595852658429;;;-0.52734375
1595852658438;;;;-0.01953125
1595852658440;;;;;-0.044921875
1595852658444;-3
1595852658455;;0
1595852658493;;;-2.25976562
1595852658494;;;;-0.013671875
1595852658496;;;;;0.00390625
1595852658552;;;-2.06054688
1595852658557;;;;0.05859375
1595852658571;;;;;-0.068359375
1595852658572;-37
1595852658572;;-1
1595852658610;;;-3.47460938
1595852658612;;;;-0.046875
1595852658612;;;;;0.04296875
1595852658656;-29
1595852658660;;15
1595852658673;;;-3.65429688
1595852658675;;;;0.126953125
1595852658678;;;;;-0.0234375
1595852658740;;;-2.54492188
1595852658741;;;;-0.013671875
1595852658742;;;;;0.00390625
1595852658767;-31
1595852658770;;-17
1595852658790;;;-1.70507812
1595852658793;;;;0.107421875
1595852658796;;;;;0.0703125
1595852658872;;;-1.75
1595852658875;;;;0.021484375
1595852658878;;;;;0.107421875
1595852658884;-86
1595852658884;;-2
1595852658916;;;-2.21875
1595852658919;;;;-0.0078125
1595852658922;;;;;0.068359375
1595852658940;-89
1595852658943;;1
1595852658984;;;-1.59375
1595852658987;;;;-0.068359375
1595852658988;;;;;0.05859375
1595852659041;;;-2.1328125
1595852659050;;;;-0.1484375
1595852659053;;;;;0.013671875
1595852659053;-89
1595852659056;;3
1595852659086;;;-1.29101562
1595852659090;;;;-0.06640625
1595852659090;;;;;-0.001953125
1595852659140;;;1.14257812
1595852659148;;;;0.046875
1595852659149;;;;;-0.05078125
1595852659160;-59
1595852659177;;5
1595852659198;;;1.98046875
1595852659203;;;;0.080078125
1595852659203;;;;;-0.09375
1595852659269;;;1.609375
1595852659269;;;;0.048828125
1595852659269;;;;;-0.048828125
1595852659269;85
1595852659274;;-2
1595852659319;;;2.26171875
1595852659319;;;;0.064453125
1595852659321;;;;;-0.013671875
1595852659368;95
1595852659369;;-2
1595852659387;;;3.03320312
1595852659387;;;;-0.056640625
1595852659390;;;;;-0.1328125
1595852659438;110
1595852659444;;-2
1595852659453;;;2.33203125
1595852659453;;;;0.00390625
1595852659453;;;;;-0.025390625
1595852659503;;;2.69921875
1595852659508;;;;-0.0078125
1595852659508;;;;;-0.025390625
1595852659545;109
1595852659553;;-2
1595852659567;;;1.98632812
1595852659569;;;;0.068359375
1595852659569;;;;;0.06640625
1595852659624;;;1.67773438
1595852659625;;;;0.048828125
1595852659627;;;;;0.017578125
1595852659654;3
1595852659657;;6
1595852659685;;;1.77148438
1595852659686;;;;0.064453125
1595852659689;;;;;0.015625
1595852659749;;;1.48632812
1595852659751;;;;0.0546875
1595852659756;;;;;0.015625
1595852659759;-3
1595852659760;;-4
1595852659801;;;0.771484375
1595852659809;;;;0.03125
1595852659811;;;;;-0.01171875
1595852659870;19
1595852659872;;5
1595852659875;;;-0.826171875
1595852659875;;;;-0.05078125
1595852659878;;;;;0.05078125
1595852659919;;;-2.171875
1595852659924;;;;-0.125
1595852659924;;;;;0.099609375
1595852659966;-39
1595852659969;;-5
1595852659989;;;-3.29492188
1595852659991;;;;-0.125
1595852659991;;;;;0.134765625
1595852660041;-51
1595852660041;;5
1595852660061;;;-2.65234375
1595852660065;;;;-0.109375
1595852660070;;;;;0.0859375
1595852660119;;;-2.92382812
1595852660119;;;;-0.11328125
1595852660122;;;;;0.056640625
1595852660140;0
1595852660152;;1
1595852660181;;;-2.96875
1595852660187;;;;-0.140625
1595852660190;;;;;0.087890625
1595852660246;;;-2.7265625
1595852660252;;;;-0.142578125
1595852660254;;;;;0.119140625
1595852660259;-1
1595852660270;;-1
1595852660303;;;-2.13671875
1595852660306;;;;-0.064453125
1595852660309;;;;;0.140625
1595852660359;-59
1595852660369;;7
1595852660369;;;-1.984375
1595852660371;;;;-0.091796875
1595852660375;;;;;0.091796875
1595852660427;;;-0.46484375
1595852660431;;;;0.13671875
1595852660437;;;;;0.107421875
1595852660478;-79
1595852660482;;2
1595852660487;;;0.103515625
1595852660488;;;;0.064453125
1595852660491;;;;;-0.029296875
1595852660540;;;2.69921875
1595852660543;;;;0.185546875
1595852660550;;;;;-0.125
1595852660571;25
1595852660580;;-4
1595852660592;;;2.734375
1595852660600;;;;0.166015625
1595852660600;;;;;-0.111328125
1595852660642;129
1595852660643;;-10
1595852660655;;;3.02929688
1595852660660;;;;0.09765625
1595852660665;;;;;-0.185546875
1595852660717;;;2.44140625
1595852660718;;;;0.091796875
1595852660722;;;;;-0.099609375
1595852660752;114
1595852660754;;-4
1595852660784;;;2.76171875
1595852660788;;;;0.015625
1595852660788;;;;;-0.09765625
1595852660836;;;1.99804688
1595852660842;;;;0.064453125
1595852660842;;;;;-0.076171875
1595852660849;59
1595852660855;;4
1595852660898;;;2.71484375
1595852660904;;;;0.12109375
1595852660907;;;;;-0.06640625
1595852660958;1
1595852660967;;2
1595852660969;;;2.01757812
1595852660974;;;;0.083984375
1595852660976;;;;;-0.060546875
1595852661021;;;1.90429688
1595852661022;;;;0.060546875
1595852661024;;;;;-0.046875
1595852661068;-1
1595852661069;;-4
1595852661086;;;0.3046875
1595852661086;;;;0.009765625
1595852661093;;;;;0.017578125
1595852661146;;;-0.853515625
1595852661146;;;;-0.060546875
1595852661148;;;;;0.1015625
1595852661170;2
1595852661173;;2
1595852661200;;;-2.90625
1595852661208;;;;-0.11328125
1595852661213;;;;;0.18359375
1595852661244;0
1595852661256;;-1
1595852661262;;;-3.48828125
1595852661263;;;;-0.154296875
1595852661267;;;;;0.189453125
1595852661322;;;-3.39648438
1595852661323;;;;-0.09375
1595852661324;;;;;0.146484375
1595852661353;0
1595852661360;;3
1595852661387;;;-3.42578125
1595852661390;;;;0
1595852661393;;;;;0.130859375
1595852661451;;;-3.1328125
1595852661456;;;;-0.041015625
1595852661458;;;;;0.087890625
1595852661461;-115
1595852661467;;-6
1595852661505;;;-3.25585938
1595852661505;;;;-0.07421875
1595852661507;;;;;0.056640625
1595852661559;-152
1595852661562;;1
1595852661568;;;-2.453125
1595852661569;;;;-0.033203125
1595852661573;;;;;0.091796875
1595852661622;;;-2.9921875
1595852661622;;;;-0.021484375
1595852661625;;;;;0.0625
1595852661666;-144
1595852661666;;2
1595852661689;;;-0.236328125
1595852661689;;;;0.0390625
1595852661689;;;;;0.044921875
1595852661746;-30
1595852661752;;0
1595852661755;;;1.40625
1595852661760;;;;0.1484375
1595852661766;;;;;0.009765625
1595852661801;;;3.6796875
1595852661810;;;;0.099609375
1595852661814;;;;;-0.138671875
1595852661856;119
1595852661860;;-7
1595852661869;;;3.94726562
1595852661871;;;;0.314453125
1595852661878;;;;;-0.134765625
1595852661934;;;4.64648438
1595852661942;;;;0.107421875
1595852661943;;;;;-0.2578125
1595852661969;208
1595852661970;;-13
1595852661987;;;2.96875
1595852661989;;;;0.041015625
1595852661995;;;;;-0.10546875
1595852662039;;;2.90820312
1595852662039;;;;0.125
1595852662040;;;;;-0.0625
1595852662062;135
1595852662071;;0
1595852662085;;;2.77148438
1595852662086;;;;0.099609375
1595852662087;;;;;-0.09375
1595852662135;;;2.60546875
1595852662141;;;;0.1328125
1595852662148;;;;;-0.046875
1595852662168;35
1595852662170;;1
1595852662239;;;2.04492188
1595852662239;;;;0.005859375
1595852662239;;;;;-0.00390625
1595852662268;;;1.9765625
1595852662268;;;;0.076171875
1595852662269;;;;;0.021484375
1595852662288;-3
1595852662290;;-3
1595852662317;;;0.6875
1595852662320;;;;0.025390625
1595852662323;;;;;0.060546875
1595852662341;32
1595852662354;;-2
1595852662388;;;-0.763671875
1595852662389;;;;0.017578125
1595852662395;;;;;0.033203125
1595852662446;;;-2.82421875
1595852662451;;;;-0.07421875
1595852662451;;;;;0.171875
1595852662453;-26
1595852662453;;4
1595852662501;;;-3.37304688
1595852662502;;;;-0.216796875
1595852662504;;;;;0.232421875
1595852662553;-96
1595852662553;;2
1595852662574;;;-2.68554688
1595852662574;;;;0
1595852662574;;;;;0.13671875
1595852662626;;;-3.94140625
1595852662638;;;;-0.09375
1595852662638;;;;;0.2578125
1595852662652;-1
1595852662659;;1
1595852662694;;;-3.43359375
1595852662699;;;;-0.001953125
1595852662702;;;;;0.171875
1595852662755;;;-4.0390625
1595852662758;;;;-0.048828125
1595852662758;;;;;0.19140625
1595852662768;-64
1595852662774;;-6
1595852662811;;;-3.1796875
1595852662811;;;;-0.0234375
1595852662816;;;;;0.115234375
1595852662888;-176
1595852662893;;-5
1595852662900;;;-0.923828125
1595852662901;;;;-0.03515625
1595852662901;;;;;-0.0078125
1595852662930;;;-0.755859375
1595852662937;;;;0.037109375
1595852662942;;;;;0.060546875
1595852662956;-86
1595852662958;;1
1595852663002;;;2.45898438
1595852663002;;;;0.130859375
1595852663005;;;;;-0.158203125
1595852663043;63
1595852663053;;-4
1595852663058;;;2.8671875
1595852663059;;;;0.234375
1595852663070;;;;;-0.150390625
1595852663114;;;4.48046875
1595852663119;;;;0.1640625
1595852663122;;;;;-0.328125
1595852663155;163
1595852663170;;-11
1595852663177;;;3.52148438
1595852663182;;;;0.10546875
1595852663190;;;;;-0.123046875
1595852663244;;;2.80273438
1595852663245;;;;-0.0078125
1595852663250;;;;;-0.01953125
1595852663258;161
1595852663261;;8
1595852663304;;;3.27148438
1595852663306;;;;0.013671875
1595852663306;;;;;-0.00390625
1595852663356;;;2.65625
1595852663356;;;;0.107421875
1595852663365;;;;;-0.017578125
1595852663366;71
1595852663371;;3
1595852663409;;;2.6171875
1595852663409;;;;0.1015625
1595852663414;;;;;-0.046875
1595852663468;;;2.27148438
1595852663468;;;;0.142578125
1595852663468;;;;;0.00390625
1595852663473;65
1595852663478;;-1
1595852663520;;;1.97265625
1595852663523;;;;0.1171875
1595852663525;;;;;-0.02734375
1595852663551;92
1595852663551;;0
1595852663583;;;0.375
1595852663584;;;;-0.046875
1595852663584;;;;;0.080078125
1595852663640;;;-1.20898438
1595852663640;;;;-0.001953125
1595852663643;;;;;0.064453125
1595852663671;33
1595852663672;;2
1595852663710;;;-3.69921875
1595852663710;;;;-0.169921875
1595852663715;;;;;0.1875
1595852663760;-110
1595852663760;;-4
1595852663772;;;-3.00195312
1595852663775;;;;-0.1015625
1595852663776;;;;;0.1640625
1595852663819;;;-4.94726562
1595852663827;;;;-0.201171875
1595852663827;;;;;0.2734375
1595852663871;-84
1595852663871;;0
1595852663883;;;-3.30273438
1595852663894;;;;0.01171875
1595852663901;;;;;0.083984375
1595852663950;;;-4.25390625
1595852663951;;;;0
1595852663954;;;;;0.146484375
1595852663968;-14
1595852663970;;21
1595852664008;;;-3.27539062
1595852664009;;;;0.01171875
1595852664009;;;;;0.10546875
1595852664043;-165
1595852664043;;20
1595852664063;;;-2
1595852664063;;;;0.109375
1595852664068;;;;;0.052734375
1595852664116;;;-2.89453125
1595852664116;;;;0.013671875
1595852664117;;;;;0.095703125
1595852664141;-105
1595852664154;;1
1595852664170;;;-0.46484375
1595852664171;;;;0.091796875
1595852664172;;;;;0.0703125
1595852664229;;;1.87304688
1595852664233;;;;0.109375
1595852664235;;;;;-0.03125
1595852664255;-21
1595852664258;;-1
1595852664295;;;4.3828125
1595852664296;;;;0.2109375
1595852664296;;;;;-0.232421875
1595852664351;;;3.98828125
1595852664360;;;;0.029296875
1595852664370;;;;;-0.205078125
1595852664371;174
1595852664371;;-8
1595852664414;;;3.3359375
1595852664416;;;;0.083984375
1595852664417;;;;;-0.064453125
1595852664462;159
1595852664471;;2
1595852664475;;;3.15625
1595852664476;;;;-0.037109375
1595852664478;;;;;-0.060546875
1595852664542;;;2.54492188
1595852664547;;;;0.03515625
1595852664548;;;;;0.03125
1595852664571;62
1595852664571;;9
1595852664603;;;2.49609375
1595852664606;;;;0.013671875
1595852664609;;;;;0.013671875
1595852664657;2
1595852664669;;23
1595852664670;;;2.60742188
1595852664670;;;;0.171875
1595852664670;;;;;-0.05078125
1595852664715;;;2.8671875
1595852664716;;;;0.12890625
1595852664718;;;;;-0.05078125
1595852664755;53
1595852664755;;24
1595852664775;;;1.4765625
1595852664775;;;;0.009765625
1595852664775;;;;;-0.001953125
1595852664828;;;-0.134765625
1595852664831;;;;0.01171875
1595852664831;;;;;0.107421875
1595852664857;55
1595852664857;;0
1595852664890;;;-2.52148438
1595852664897;;;;-0.0703125
1595852664901;;;;;0.107421875
1595852664960;;;-3.12890625
1595852664963;;;;-0.173828125
1595852664977;;;;;0.154296875
1595852664979;-69
1595852664984;;-1
1595852665009;;;-4.109375
1595852665014;;;;-0.26953125
1595852665014;;;;;0.197265625
1595852665065;;;-3.99023438
1595852665069;;;;-0.123046875
1595852665072;;;;;0.1640625
1595852665087;-135
1595852665088;;-1
1595852665118;;;-3.65429688
1595852665118;;;;-0.01171875
1595852665127;;;;;0.11328125
1595852665168;-10
1595852665174;;-3
1595852665185;;;-3.19335938
1595852665186;;;;-0.0078125
1595852665188;;;;;0.08203125
1595852665235;;;-3.8359375
1595852665238;;;;0.009765625
1595852665251;;;;;0.216796875
1595852665252;0
1595852665253;;2
1595852665282;;;-2.265625
1595852665288;;;;0.109375
1595852665288;;;;;0.1171875
1595852665336;;;-4.33007812
1595852665342;;;;0.021484375
1595852665343;;;;;0.169921875
1595852665350;-38
1595852665353;;-2
1595852665400;;;-2.26757812
1595852665401;;;;0.09765625
1595852665401;;;;;0.140625
1595852665454;;;-0.23828125
1595852665459;;;;0.00390625
1595852665459;;;;;0.05859375
1595852665468;-134
1595852665468;;-1
1595852665514;;;3.06640625
1595852665514;;;;0.146484375
1595852665517;;;;;-0.12109375
1595852665561;54
1595852665569;;-3
1595852665587;;;4.83398438
1595852665587;;;;0.16015625
1595852665587;;;;;-0.341796875
1595852665642;;;3.78125
1595852665643;;;;0.07421875
1595852665645;;;;;-0.234375
1595852665692;196
1595852665692;;-13
1595852665708;;;3.328125
1595852665708;;;;0.09765625
1595852665712;;;;;-0.150390625
1595852665742;137
1595852665751;;-2
1595852665766;;;3.23632812
1595852665767;;;;0.0625
1595852665767;;;;;-0.060546875
1595852665830;;;3.08203125
1595852665833;;;;0.013671875
1595852665833;;;;;-0.01953125
1595852665857;62
1595852665860;;4
1595852665901;;;3.26953125
1595852665905;;;;0.125
1595852665906;;;;;-0.00390625
1595852665950;;;2.81640625
1595852665956;;;;0.08203125
1595852665956;;;;;-0.033203125
1595852665958;8
1595852665962;;-6
1595852665999;;;2.52539062
1595852666001;;;;0.07421875
1595852666005;;;;;0.068359375
1595852666060;;;1.6484375
1595852666068;;;;0.00390625
1595852666069;;;;;0.04296875
1595852666069;130
1595852666069;;3
1595852666118;;;-1.21679688
1595852666119;;;;-0.080078125
1595852666120;;;;;0.146484375
1595852666169;28
1595852666170;;0
1595852666174;;;-2.78125
1595852666176;;;;-0.037109375
1595852666181;;;;;0.123046875
1595852666235;;;-5.21875
1595852666243;;;;-0.255859375
1595852666243;;;;;0.28125
1595852666272;-144
1595852666277;;1
1595852666308;;;-4.05859375
1595852666320;;;;-0.06640625
1595852666321;;;;;0.146484375
1595852666357;-102
1595852666360;;1
1595852666370;;;-4.73046875
1595852666370;;;;0.083984375
1595852666371;;;;;0.134765625
1595852666420;;;-3.7421875
1595852666421;;;;0.080078125
1595852666428;;;;;0.046875
1595852666459;1
1595852666461;;-5
1595852666468;;;-4.62109375
1595852666470;;;;0.068359375
1595852666471;;;;;0.130859375
1595852666535;;;-4.3515625
1595852666535;;;;0.103515625
1595852666536;;;;;0.197265625
1595852666561;-104
1595852666561;;2
1595852666581;;;-3.23242188
1595852666584;;;;0.17578125
1595852666587;;;;;0.17578125
1595852666652;;;-1.34179688
1595852666652;;;;0.0703125
1595852666654;;;;;0.111328125
1595852666670;-145
1595852666674;;2
1595852666719;;;-0.345703125
1595852666723;;;;-0.005859375
1595852666723;;;;;0.099609375
1595852666770;;;3.9296875
1595852666772;;;;-0.009765625
1595852666772;;;;;-0.1328125
1595852666775;-44
1595852666779;;-1
1595852666831;;;6.81835938
1595852666834;;;;0.10546875
1595852666836;;;;;-0.3828125
1595852666876;217
1595852666879;;-6
1595852666906;;;5.22265625
1595852666917;;;;0.1953125
1595852666923;;;;;-0.19140625
1595852666963;;;3.61914062
1595852666967;;;;-0.107421875
1595852666967;;;;;-0.037109375
1595852666978;251
1595852666989;;-1
1595852667024;;;2.8515625
1595852667026;;;;-0.025390625
1595852667028;;;;;0.0703125
1595852667080;;;2.984375
1595852667083;;;;0.015625
1595852667088;;;;;-0.013671875
1595852667089;119
1595852667091;;5
1595852667146;;;3.5078125
1595852667149;;;;0.0703125
1595852667151;;;;;-0.111328125
1595852667196;0
1595852667197;;-1
1595852667206;;;3.40234375
1595852667208;;;;0.12109375
1595852667227;;;;;-0.109375
1595852667261;;;2.17382812
1595852667266;;;;-0.009765625
1595852667267;;;;;-0.013671875
1595852667303;144
1595852667304;;-3
1595852667322;;;-0.166015625
1595852667326;;;;-0.04296875
1595852667326;;;;;0.048828125
1595852667380;;;-2.58203125
1595852667381;;;;-0.056640625
1595852667383;;;;;0.220703125
1595852667411;81
1595852667427;;-4
1595852667443;;;-2.46289062
1595852667451;;;;-0.068359375
1595852667452;;;;;0.123046875
1595852667477;-82
1595852667486;;1
1595852667502;;;-3.46679688
1595852667506;;;;-0.078125
1595852667506;;;;;0.22265625
1595852667559;;;-1.75976562
1595852667562;;;;0.130859375
1595852667562;;;;;0.01953125
1595852667585;-138
1595852667592;;4
1595852667628;;;-3.04296875
1595852667628;;;;0.001953125
1595852667635;;;;;0.130859375
1595852667684;;;-1.61132812
1595852667684;;;;0.083984375
1595852667686;;;;;0.01171875
1595852667692;-94
1595852667693;;0
1595852667732;;;-2.64648438
1595852667741;;;;0
1595852667741;;;;;0.064453125
1595852667785;;;-1.91015625
1595852667786;;;;0.0234375
1595852667788;;;;;0.056640625
1595852667803;-4
1595852667803;;3
1595852667848;;;-2.93164062
1595852667852;;;;-0.037109375
1595852667852;;;;;0.142578125
1595852667898;-2
1595852667907;;-2
1595852667910;;;-1.23828125
1595852667924;;;;0.041015625
1595852667924;;;;;0.037109375
1595852667964;;;-2.01757812
1595852667964;;;;-0.0234375
1595852667967;;;;;0.1015625
1595852668008;-3
1595852668019;;0
1595852668036;;;-1.3984375
1595852668036;;;;0.064453125
1595852668042;;;;;0.041015625
1595852668087;2
1595852668087;;2
1595852668088;;;-2.22265625
1595852668089;;;;0.0078125
1595852668091;;;;;0.095703125
1595852668150;;;-2.42382812
1595852668151;;;;0.056640625
1595852668151;;;;;0.10546875
1595852668194;-40
1595852668202;;1
1595852668206;;;-1.85742188
1595852668208;;;;0.0390625
1595852668211;;;;;-0.001953125
1595852668264;;;-2.01367188
1595852668265;;;;0.0234375
1595852668267;;;;;0.080078125
1595852668294;-100
1595852668294;;2
1595852668322;;;-1.83398438
1595852668328;;;;0.02734375
1595852668328;;;;;0.169921875
1595852668382;;;-1.18945312
1595852668388;;;;-0.001953125
1595852668388;;;;;0.064453125
1595852668403;-98
1595852668409;;-2
1595852668450;;;0.978515625
1595852668450;;;;0.052734375
1595852668453;;;;;0.015625
1595852668504;-60
1595852668509;;1
1595852668509;;;1.31054688
1595852668518;;;;0.09375
1595852668521;;;;;-0.046875
1595852668563;;;1.99023438
1595852668564;;;;0.02734375
1595852668565;;;;;-0.099609375
1595852668610;60
1595852668618;;-2
1595852668627;;;1.3359375
1595852668633;;;;0.138671875
1595852668640;;;;;-0.095703125
1595852668681;88
1595852668689;;-1
1595852668701;;;1.7109375
1595852668701;;;;0.0625
1595852668701;;;;;-0.04296875
1595852668758;;;1.68945312
1595852668758;;;;0.02734375
1595852668760;;;;;-0.1015625
1595852668785;90
1595852668790;;-2
1595852668819;;;1.4765625
1595852668822;;;;0.025390625
1595852668825;;;;;-0.041015625
1595852668869;;;1.5625
1595852668871;;;;0.01171875
1595852668871;;;;;-0.06640625
1595852668892;67
1595852668896;;-3
1595852668932;;;1.14453125
1595852668933;;;;0.009765625
1595852668934;;;;;-0.0078125
1595852668986;;;1.02734375
1595852668986;;;;-0.029296875
1595852668988;;;;;-0.037109375
1595852669007;68
1595852669010;;-5
1595852669056;;;1.08007812
1595852669056;;;;0.021484375
1595852669057;;;;;-0.025390625
1595852669109;48
1595852669110;;3
1595852669110;;;0.84765625
1595852669112;;;;-0.0078125
1595852669119;;;;;-0.048828125
1595852669169;;;1.1796875
1595852669169;;;;0.033203125
1595852669169;;;;;-0.037109375
1595852669210;45
1595852669210;;-2
1595852669241;;;1.10351562
1595852669255;;;;-0.001953125
1595852669255;;;;;0
1595852669406;47
1595852669407;;0
1595852669407;;;1.19140625
1595852669408;;;;-0.013671875
1595852669408;;;;;-0.029296875
1595852669468;;;1.03515625
1595852669477;;;;0.044921875
1595852669477;;;;;-0.02734375
1595852669604;2
1595852669604;;-4
1595852669605;;;1.19335938
1595852669605;;;;0.0234375
1595852669605;;;;;-0.03125
1595852669676;;;1.03710938
1595852669679;;;;0.01171875
1595852669679;;;;;-0.015625
1595852669802;;;0.896484375
1595852669803;;;;0.025390625
1595852669803;;;;;-0.03125
1595852669803;0
1595852669803;;0
1595852669854;;;0.82421875
1595852669857;;;;-0.013671875
1595852669868;;;;;0.0078125
1595852669883;3
1595852669884;;2
1595852669998;;;1.01953125
1595852670000;;;;-0.01171875
1595852670000;;;;;-0.0234375
1595852670159;;;1.046875
1595852670159;;;;-0.009765625
1595852670159;;;;;0.009765625
1595852670173;;;0.640625
1595852670175;;;;-0.009765625
1595852670175;;;;;0.03515625
1595852670205;;;0.697265625
1595852670218;;;;-0.001953125
1595852670219;;;;;0.005859375
1595852670220;31
1595852670222;;-2
1595852670401;;;0.94921875
1595852670401;;;;-0.017578125
1595852670402;;;;;0.01953125
1595852670405;40
1595852670406;;3
1595852670439;;;-1.00195312
1595852670449;;;;0.017578125
1595852670456;;;;;0.0859375
1595852670478;;;-0.771484375
1595852670484;;;;0.021484375
1595852670485;;;;;0.044921875
1595852670593;-21
1595852670593;;0
1595852670594;;;-1.23242188
1595852670595;;;;-0.0390625
1595852670595;;;;;0.06640625
1595852670647;;;-0.810546875
1595852670647;;;;0.001953125
1595852670652;;;;;0.005859375
1595852670684;;;-1.18554688
1595852670686;;;;-0.037109375
1595852670686;;;;;0.044921875
1595852670792;-49
1595852670792;;-1
1595852670794;;;-0.490234375
1595852670794;;;;-0.01171875
1595852670803;;;;;0.015625
1595852670820;;;-0.66796875
1595852670822;;;;-0.017578125
1595852670826;;;;;0.033203125
1595852670878;;;-1.03710938
1595852670880;;;;-0.033203125
1595852670883;;;;;0.03125
1595852670993;-37
1595852670993;;5
1595852670993;;;-0.578125
1595852670993;;;;0.03125
1595852670994;;;;;0.01171875
1595852671052;;;-0.865234375
1595852671053;;;;-0.033203125
1595852671054;;;;;0.029296875
1595852671078;;;-0.345703125
1595852671089;;;;0.001953125
1595852671089;;;;;-0.00390625
1595852671091;-20
1595852671091;;-6
1595852671208;;;-0.919921875
1595852671209;;;;-0.0234375
1595852671216;;;;;0.02734375
1595852671228;;;-0.4765625
1595852671229;;;;0.021484375
1595852671239;;;;;0.017578125
1595852671281;;;-0.927734375
1595852671284;;;;0.00390625
1595852671287;;;;;0.04296875
1595852671398;6
1595852671399;;-4
1595852671399;;;-1.15429688
1595852671400;;;;-0.01171875
1595852671407;;;;;0.041015625
1595852671437;;;-1.01171875
1595852671442;;;;0.07421875
1595852671456;;;;;0.056640625
1595852671485;;;-1.04296875
1595852671485;;;;0.064453125
1595852671485;;;;;0.048828125
1595852671600;5
1595852671600;;1
1595852671602;;;-0.888671875
1595852671602;;;;0.041015625
1595852671611;;;;;0.052734375
1595852671636;;;-1.21484375
1595852671644;;;;0.052734375
1595852671649;;;;;0.03125
1595852671676;;;-0.99609375
1595852671681;;;;0.072265625
1595852671681;;;;;0.064453125
1595852671796;-4
1595852671796;;-4
1595852671798;;;-1.10546875
1595852671798;;;;0.01953125
1595852671799;;;;;0.078125
1595852671854;;;-1.52539062
1595852671856;;;;-0.056640625
1595852671859;;;;;0.0703125
1595852671884;;;-1.13085938
1595852671891;;;;-0.060546875
1595852671893;;;;;0.05859375
1595852671998;6
1595852671998;;-3
1595852672011;;;-1.12304688
1595852672011;;;;-0.021484375
1595852672017;;;;;0.0390625
1595852672042;;;-0.796875
1595852672052;;;;0.0390625
1595852672066;;;;;0.072265625
1595852672193;-53
1595852672194;;0
1595852672194;;;-1.29882812
1595852672195;;;;0.04296875
1595852672195;;;;;0.0703125
1595852672223;;;-0.3984375
1595852672233;;;;0.025390625
1595852672236;;;;;0.013671875
1595852672273;;;0.34765625
1595852672279;;;;0.00390625
1595852672279;;;;;-0.005859375
1595852672290;-27
1595852672392;;1
1595852672393;;;0.939453125
1595852672393;;;;-0.025390625
1595852672393;;;;;-0.068359375
1595852672416;;;1.08984375
1595852672416;;;;-0.05078125
1595852672416;;;;;-0.064453125
1595852672467;;;1.4453125
1595852672470;;;;-0.025390625
1595852672475;;;;;-0.060546875
1595852672689;53
1595852672690;;1
1595852672694;;;1.11328125
1595852672694;;;;-0.046875
1595852672694;;;;;-0.03125
1595852672714;;;0.921875
1595852672716;;;;0.021484375
1595852672716;;;;;-0.05859375
1595852672762;;;1.0625
1595852672763;;;;0.041015625
1595852672766;;;;;-0.041015625
1595852672884;49
1595852672884;;-1
1595852672885;;;0.81640625
1595852672886;;;;0.0234375
1595852672886;;;;;-0.03125
1595852672908;;;0.6640625
1595852672912;;;;-0.001953125
1595852672916;;;;;-0.01953125
1595852672961;;;0.7578125
1595852672966;;;;0.009765625
1595852672966;;;;;-0.02734375
1595852673082;34
1595852673082;;2
1595852673083;;;1.04492188
1595852673083;;;;0.041015625
1595852673083;;;;;-0.025390625
1595852673106;;;0.755859375
1595852673108;;;;0.04296875
1595852673111;;;;;-0.013671875
1595852673120;35
1595852673120;;1
1595852673156;;;0.791015625
1595852673159;;;;0.03515625
1595852673159;;;;;-0.01953125
1595852673282;;;0.779296875
1595852673282;;;;0.044921875
1595852673282;;;;;-0.025390625
1595852673283;30
1595852673283;;-2
1595852673331;;;0.90625
1595852673334;;;;0.013671875
1595852673336;;;;;-0.0078125
1595852673358;;;1.02929688
1595852673365;;;;0.021484375
1595852673366;;;;;-0.005859375
1595852673477;42
1595852673477;;0
1595852673478;;;0.9921875
1595852673478;;;;-0.021484375
1595852673478;;;;;-0.013671875
1595852673503;35
1595852673504;;0
1595852673508;;;0.97265625
1595852673508;;;;-0.001953125
1595852673516;;;;;-0.03125
1595852673562;;;0.931640625
1595852673565;;;;0.0234375
1595852673565;;;;;-0.03515625
1595852673677;39
1595852673677;;-1
1595852673679;;;0.7578125
1595852673679;;;;0.00390625
1595852673679;;;;;-0.037109375
1595852673718;40
1595852673719;;2
1595852673720;;;1.18164062
1595852673720;;;;-0.029296875
1595852673721;;;;;-0.044921875
1595852673768;;;0.669921875
1595852673770;;;;-0.017578125
1595852673773;;;;;0.005859375
1595852673877;38
1595852673878;;-2
1595852673878;;;1.00585938
1595852673879;;;;-0.0546875
1595852673888;;;;;-0.025390625
1595852673903;;;0.9609375
1595852673903;;;;-0.0078125
1595852673903;;;;;-0.013671875
1595852673960;;;0.78515625
1595852673963;;;;0.01171875
1595852673965;;;;;-0.02734375
1595852674070;46
1595852674072;;2
1595852674073;;;0.00390625
1595852674073;;;;-0.015625
1595852674073;;;;;0.015625
1595852674121;19
1595852674121;;-2
1595852674121;;;-0.623046875
1595852674123;;;;-0.025390625
1595852674123;;;;;0.1015625
1595852674168;;;-1.26367188
1595852674168;;;;-0.013671875
1595852674176;;;;;0.02734375
1595852674211;-19
1595852674218;;0
1595852674218;;;-1.47070312
1595852674220;;;;-0.017578125
1595852674221;;;;;0.01171875
1595852674273;;;-1.21679688
1595852674276;;;;0.033203125
1595852674277;;;;;-0.0078125
1595852674311;-58
1595852674318;;-3
1595852674319;;;-1.34179688
1595852674321;;;;-0.0078125
1595852674324;;;;;-0.015625
1595852674372;;;-1.4921875
1595852674378;;;;-0.005859375
1595852674385;;;;;0.033203125
1595852674388;-56
1595852674388;;0
1595852674419;;;-1.58984375
1595852674421;;;;-0.07421875
1595852674425;;;;;0.0546875
1595852674470;;;-1.82421875
1595852674475;;;;-0.06640625
1595852674475;;;;;0.083984375
1595852674482;-50
1595852674483;;-3
1595852674528;;;-0.904296875
1595852674532;;;;0.033203125
1595852674532;;;;;0.04296875
1595852674589;;;-1.35351562
1595852674593;;;;-0.041015625
1595852674601;;;;;0.056640625
1595852674603;5
1595852674603;;8
1595852674655;;;-0.9140625
1595852674659;;;;0.01171875
1595852674659;;;;;0.056640625
1595852674704;-1
1595852674705;;0
1595852674705;;;-1.17578125
1595852674706;;;;0.00390625
1595852674706;;;;;0.04296875
1595852674762;;;-1.00976562
1595852674765;;;;0.064453125
1595852674767;;;;;0.05859375
1595852674804;1
1595852674817;;0
1595852674818;;;-1.10742188
1595852674819;;;;0.0625
1595852674819;;;;;0.03125
1595852674880;;;-0.884765625
1595852674880;;;;0.107421875
1595852674883;;;;;0.009765625
1595852674908;-37
1595852674910;;0
1595852674935;;;-1.03125
1595852674945;;;;0.03125
1595852674948;;;;;0.013671875
1595852674985;-36
1595852674989;;0
1595852675002;;;-1.33398438
1595852675002;;;;-0.01171875
1595852675003;;;;;0.06640625
1595852675064;;;-1.12890625
1595852675064;;;;-0.03125
1595852675067;;;;;0.05859375
1595852675089;-59
1595852675091;;1
1595852675120;;;-1.13867188
1595852675125;;;;-0.03125
1595852675125;;;;;0.0625
1595852675177;;;-0.84375
1595852675179;;;;-0.03125
1595852675182;;;;;0.021484375
1595852675203;-59
1595852675204;;2
1595852675254;;;-1.07226562
1595852675254;;;;0.005859375
1595852675256;;;;;0.056640625
1595852675304;-48
1595852675304;;2
1595852675311;;;-0.859375
1595852675311;;;;0.03125
1595852675311;;;;;0.00390625
1595852675364;;;0.021484375
1595852675368;;;;0.015625
1595852675369;;;;;0.017578125
1595852675410;-53
1595852675410;;-2
1595852675442;;;1.0859375
1595852675443;;;;0.001953125
1595852675443;;;;;-0.044921875
1595852675478;;;1.50585938
1595852675478;;;;0.068359375
1595852675484;;;;;-0.1015625
1595852675511;20
1595852675512;;0
1595852675534;;;1.27734375
1595852675534;;;;0.02734375
1595852675534;;;;;-0.03125
1595852675579;66
1595852675587;;-3
1595852675587;;;1.40039062
1595852675588;;;;0.048828125
1595852675591;;;;;-0.0703125
1595852675652;;;1.3671875
1595852675659;;;;-0.0625
1595852675659;;;;;-0.05078125
1595852675686;70
1595852675688;;0
1595852675703;;;1.40039062
1595852675705;;;;-0.009765625
1595852675705;;;;;-0.087890625
1595852675767;;;0.90234375
1595852675767;;;;0.0390625
1595852675767;;;;;-0.037109375
1595852675803;55
1595852675803;;2
1595852675822;;;0.91015625
1595852675824;;;;0.044921875
1595852675829;;;;;-0.013671875
1595852675881;;;0.85546875
1595852675884;;;;0.037109375
1595852675888;;;;;0.017578125
1595852675911;34
1595852675912;;-4
1595852675941;;;0.873046875
1595852675951;;;;0.00390625
1595852675953;;;;;0.015625
1595852676004;;;1.26367188
1595852676025;;;;-0.029296875
1595852676025;;;;;-0.00390625
1595852676043;47
1595852676044;;4
1595852676073;;;0.734375
1595852676074;;;;-0.017578125
1595852676074;;;;;0.01953125
1595852676117;38
1595852676118;;2
1595852676125;;;1.26367188
1595852676136;;;;-0.0390625
1595852676137;;;;;-0.03125
1595852676183;40
1595852676189;;2
1595852676189;;;0.884765625
1595852676189;;;;0.041015625
1595852676194;;;;;-0.01953125
1595852676240;;;1.51757812
1595852676250;;;;0.00390625
1595852676253;;;;;-0.046875
1595852676292;1
1595852676295;;-1
1595852676305;;;0.837890625
1595852676307;;;;-0.005859375
1595852676307;;;;;-0.017578125
1595852676368;;;1.17382812
1595852676375;;;;-0.009765625
1595852676375;;;;;-0.013671875
1595852676391;1
1595852676403;;-2
1595852676419;;;0.63671875
1595852676421;;;;0.001953125
1595852676424;;;;;-0.01171875
1595852676489;;;1.21289062
1595852676489;;;;-0.033203125
1595852676489;;;;;-0.048828125
1595852676498;-2
1595852676502;;1
1595852676550;;;0.728515625
1595852676550;;;;0.0234375
1595852676558;;;;;0.001953125
1595852676606;;;1.3203125
1595852676612;;;;-0.041015625
1595852676613;;;;;-0.05859375
1595852676621;2
1595852676622;;0
1595852676666;;;1.01757812
1595852676671;;;;-0.009765625
1595852676671;;;;;-0.033203125
1595852676689;4
1595852676690;;1
1595852676727;;;1.25390625
1595852676732;;;;-0.0546875
1595852676733;;;;;-0.041015625
1595852676785;-5
1595852676791;;-2
1595852676795;;;0.66015625
1595852676803;;;;-0.021484375
1595852676804;;;;;0.03125
1595852676845;;;-0.0390625
1595852676851;;;;-0.056640625
1595852676852;;;;;0.0625
1595852676887;0
1595852676892;;-3
1595852676911;;;-0.626953125
1595852676911;;;;0.01171875
1595852676912;;;;;0.0234375
1595852676961;;;-1.4140625
1595852676968;;;;0.015625
1595852676972;;;;;0.048828125
1595852677003;-2
1595852677004;;2
1595852677033;;;-0.84765625
1595852677034;;;;0.046875
1595852677035;;;;;-0.03515625
1595852677087;;;-0.955078125
1595852677092;;;;0.02734375
1595852677094;;;;;-0.0234375
1595852677108;4
1595852677120;;-1
1595852677170;;;-0.89453125
1595852677172;;;;-0.017578125
1595852677173;;;;;0.044921875
1595852677211;;;-1.15429688
1595852677220;;;;0.009765625
1595852677221;;;;;0.033203125
1595852677221;-3
1595852677222;;6
1595852677271;;;-1.2265625
1595852677277;;;;-0.025390625
1595852677287;;;;;0.037109375
1595852677287;-6
1595852677287;;-3
1595852677334;;;-0.974609375
1595852677334;;;;0.060546875
1595852677334;;;;;0.017578125
1595852677388;-1
1595852677391;;-6
1595852677394;;;-0.7265625
1595852677395;;;;-0.005859375
1595852677396;;;;;0
1595852677452;;;-0.439453125
1595852677455;;;;0.02734375
1595852677456;;;;;-0.0078125
1595852677491;2
1595852677505;;9
1595852677519;;;-1.22265625
1595852677525;;;;-0.021484375
1595852677525;;;;;0.060546875
1595852677578;;;-0.51953125
1595852677582;;;;-0.015625
1595852677582;;;;;0.017578125
1595852677600;-2
1595852677608;;1
1595852677636;;;-1.27148438
1595852677637;;;;-0.044921875
1595852677644;;;;;0.037109375
1595852677691;;;-0.87890625
1595852677692;;;;-0.015625
1595852677694;;;;;0.01171875
1595852677700;-29
1595852677707;;-1
1595852677751;;;-0.75
1595852677752;;;;0.02734375
1595852677755;;;;;0.0390625
1595852677809;-52
1595852677821;;-2
1595852677822;;;-0.68359375
1595852677823;;;;0.060546875
1595852677823;;;;;0.0078125
1595852677871;;;-0.25390625
1595852677874;;;;0.037109375
1595852677874;;;;;-0.00390625
1595852677886;-28
1595852677888;;-9
1595852677934;;;-0.65625
1595852677936;;;;0.02734375
1595852677944;;;;;-0.01171875
1595852677984;-19
1595852677993;;-2
1595852677996;;;-0.66015625
1595852678002;;;;-0.001953125
1595852678002;;;;;0.0234375
1595852678053;;;-1.25585938
1595852678053;;;;-0.009765625
1595852678058;;;;;0.0546875
1595852678101;-33
1595852678101;;-2
1595852678118;;;-0.533203125
1595852678122;;;;0.001953125
1595852678122;;;;;0.044921875
1595852678175;;;-0.59375
1595852678179;;;;-0.0078125
1595852678179;;;;;0.021484375
1595852678204;-40
1595852678207;;3
1595852678248;;;-0.55859375
1595852678251;;;;-0.025390625
1595852678255;;;;;0.03125
1595852678296;;;-0.90234375
1595852678296;;;;-0.041015625
1595852678298;;;;;0.041015625
1595852678305;-27
1595852678306;;0
1595852678355;;;-0.59375
1595852678357;;;;0.013671875
1595852678357;;;;;0.03515625
1595852678407;-33
1595852678424;;0
1595852678425;;;-0.521484375
1595852678425;;;;0.03125
1595852678427;;;;;0.03515625
1595852678482;;;-0.884765625
1595852678484;;;;0
1595852678486;;;;;0.0390625
1595852678492;-30
1595852678492;;0
1595852678535;;;-0.701171875
1595852678537;;;;0.001953125
1595852678539;;;;;0.005859375
1595852678587;-40
1595852678587;;0
1595852678603;;;-0.830078125
1595852678603;;;;0
1595852678605;;;;;-0.001953125
1595852678661;;;-0.830078125
1595852678665;;;;-0.0234375
1595852678667;;;;;0.01171875
1595852678694;-46
1595852678703;;1
1595852678717;;;-0.587890625
1595852678718;;;;0.005859375
1595852678721;;;;;0.00390625
1595852678773;;;-0.23046875
1595852678778;;;;0.009765625
1595852678782;;;;;0.021484375
1595852678804;-37
1595852678804;;-1
1595852678838;;;0.306640625
1595852678839;;;;-0.01171875
1595852678840;;;;;-0.00390625
1595852678893;;;0.783203125
1595852678894;;;;0.00390625
1595852678897;;;;;-0.0390625
1595852678903;-12
1595852678909;;0
1595852678953;;;0.779296875
1595852678953;;;;-0.005859375
1595852678956;;;;;-0.03125
1595852678985;32
1595852678986;;0
1595852679013;;;0.884765625
1595852679017;;;;-0.013671875
1595852679020;;;;;-0.06640625
1595852679076;;;0.859375
1595852679088;;;;0.029296875
1595852679091;;;;;-0.0390625
1595852679093;38
1595852679094;;0
1595852679137;;;0.771484375
1595852679138;;;;0.01953125
1595852679143;;;;;-0.029296875
1595852679204;44
1595852679204;;-5
1595852679204;;;0.525390625
1595852679204;;;;0.029296875
1595852679207;;;;;-0.015625
1595852679255;;;1.00195312
1595852679255;;;;0.005859375
1595852679256;;;;;-0.072265625
1595852679295;38
1595852679305;;-1
1595852679316;;;0.953125
1595852679317;;;;0.046875
1595852679317;;;;;-0.0546875
1595852679360;;;0.470703125
1595852679366;;;;0.0234375
1595852679367;;;;;-0.046875
1595852679404;51
1595852679404;;-2
1595852679412;;;0.716796875
1595852679419;;;;0.00390625
1595852679419;;;;;-0.048828125
1595852679474;;;0.513671875
1595852679474;;;;0.01953125
1595852679474;;;;;-0.013671875
1595852679507;28
1595852679509;;0
1595852679533;;;0.79296875
1595852679536;;;;0.046875
1595852679540;;;;;-0.033203125
1595852679589;28
1595852679595;;-1
1595852679602;;;0.427734375
1595852679603;;;;0.052734375
1595852679605;;;;;-0.01171875
1595852679653;;;0.732421875
1595852679661;;;;0.048828125
1595852679662;;;;;-0.01171875
1595852679691;27
1595852679704;;-4
1595852679720;;;0.61328125
1595852679722;;;;0
1595852679725;;;;;-0.015625
1595852679778;;;0.46875
1595852679779;;;;0.005859375
1595852679782;;;;;-0.0078125
1595852679807;28
1595852679811;;-15
1595852679861;;;0.748046875
1595852679863;;;;0.033203125
1595852679863;;;;;-0.03125
1595852679903;;;0.33984375
1595852679906;;;;-0.005859375
1595852679906;;;;;0
1595852679909;17
1595852679918;;-6
1595852679960;;;0.248046875
1595852679960;;;;0.029296875
1595852679968;;;;;-0.013671875
1595852680002;22
1595852680005;;3
1595852680020;;;0.16015625
1595852680022;;;;0.02734375
1595852680022;;;;;-0.001953125
1595852680077;;;-0.005859375
1595852680077;;;;0.0234375
1595852680083;;;;;0.01171875
1595852680119;10
1595852680119;;4
1595852680135;;;-0.041015625
1595852680137;;;;-0.01171875
1595852680144;;;;;0
1595852680184;1
1595852680184;;0
1595852680196;;;-0.126953125
1595852680202;;;;-0.029296875
1595852680202;;;;;0.00390625
1595852680260;;;-0.013671875
1595852680267;;;;-0.013671875
1595852680268;;;;;0.029296875
1595852680290;-1
1595852680292;;0
1595852680317;;;-0.109375
1595852680319;;;;0.01171875
1595852680325;;;;;0.017578125
1595852680374;;;-0.02734375
1595852680377;;;;0.025390625
1595852680377;;;;;0.017578125
1595852680393;-3
1595852680405;;0
1595852680435;;;-0.10546875
1595852680435;;;;-0.0234375
1595852680444;;;;;0.01953125
1595852680495;;;0.03515625
1595852680498;;;;0.013671875
1595852680502;;;;;0.01953125
1595852680503;-5
1595852680506;;0
1595852680559;;;-0.111328125
1595852680560;;;;0.00390625
1595852680560;;;;;0.01171875
1595852680606;-1
1595852680607;;-1
1595852680620;;;-0.001953125
1595852680620;;;;0.017578125
1595852680621;;;;;0
1595852680676;;;-0.005859375
1595852680676;;;;0.005859375
1595852680676;;;;;0.009765625
1595852680716;0
1595852680720;;0
1595852680725;;;0.185546875
1595852680727;;;;0.005859375
1595852680736;;;;;0.005859375
1595852680774;;;0.150390625
1595852680776;;;;-0.029296875
1595852680776;;;;;0
1595852680782;0
1595852680785;;0
1595852680834;;;0.041015625
1595852680836;;;;-0.01953125
1595852680836;;;;;0.005859375
1595852680901;7
1595852680902;;0
1595852680902;;;0.03515625
1595852680904;;;;-0.015625
1595852680907;;;;;0.03515625
1595852680956;;;0.013671875
1595852680957;;;;-0.01953125
1595852680960;;;;;0.044921875
1595852681000;1
1595852681001;;-1
1595852681011;;;0.03515625
1595852681017;;;;-0.0546875
1595852681017;;;;;0.158203125
1595852681074;;;-0.05859375
1595852681074;;;;0.060546875
1595852681076;;;;;0.1328125
1595852681101;1
1595852681101;;0
1595852681134;;;-0.00390625
1595852681144;;;;-0.001953125
1595852681148;;;;;-0.03515625
1595852681196;;;0.04296875
1595852681197;;;;-0.0546875
1595852681201;;;;;0.044921875
1595852681207;1
1595852681209;;0
1595852681260;;;-0.185546875
1595852681266;;;;0.287109375
1595852681267;;;;;0.216796875
1595852681277;0
1595852681285;;2
1595852681307;;;0.015625
1595852681309;;;;0.029296875
1595852681320;;;;;0.0078125
1595852681353;;;-0.00390625
1595852681356;;;;-0.037109375
1595852681356;;;;;0.037109375
1595852681385;0
1595852681390;;0
1595852681416;;;-0.001953125
1595852681417;;;;-0.0234375
1595852681422;;;;;0.087890625
1595852681472;;;-0.00390625
1595852681475;;;;-0.017578125
1595852681476;;;;;0.099609375
1595852681495;0
1595852681503;;-1
1595852681535;;;-0.00390625
1595852681539;;;;0.001953125
1595852681544;;;;;0.080078125
1595852681591;;;0.001953125
1595852681599;;;;0
1595852681602;;;;;0.015625
1595852681608;0
1595852681609;;1
1595852681652;;;0
1595852681655;;;;0.00390625
1595852681656;;;;;0.01171875
1595852681701;0
1595852681704;;-1
1595852681710;;;-0.005859375
1595852681719;;;;0.00390625
1595852681719;;;;;0.013671875
1595852681777;;;-0.00390625
1595852681777;;;;-0.00390625
1595852681782;;;;;0.005859375
1595852681819;-1
1595852681822;;2
1595852681835;;;0.001953125
1595852681838;;;;0.001953125
1595852681848;;;;;0.005859375
1595852681885;1
1595852681889;;-2
1595852681898;;;0
1595852681905;;;;0.001953125
1595852681905;;;;;0
1595852681956;;;0.001953125
1595852681956;;;;0
1595852681956;;;;;0.005859375
1595852681985;0
1595852681987;;1
1595852682014;;;-0.00390625
1595852682015;;;;0.005859375
1595852682015;;;;;0
1595852682071;;;-0.001953125
1595852682071;;;;0.001953125
1595852682077;;;;;0
1595852682090;0
1595852682102;;0
1595852682137;;;-0.001953125
1595852682137;;;;0
1595852682142;;;;;-0.001953125
1595852682191;;;0.001953125
1595852682191;;;;0
1595852682199;;;;;0
1595852682204;-1
1595852682207;;0
1595852682250;;;0
1595852682253;;;;0.001953125
1595852682253;;;;;0.00390625
1595852682300;0
1595852682308;;-2
1595852682320;;;0.001953125
1595852682320;;;;0.001953125
1595852682323;;;;;0.005859375
1595852682371;;;0.001953125
1595852682376;;;;0.001953125
1595852682385;;;;;0
1595852682409;1
1595852682412;;2
1595852682427;;;0
1595852682434;;;;0
1595852682434;;;;;-0.001953125
1595852682480;-1
1595852682484;;0
1595852682508;;;-0.005859375
1595852682508;;;;0
1595852682511;;;;;-0.001953125
1595852682601;;;0.00390625
1595852682601;;;;0
1595852682601;;;;;0
1595852682605;0
1595852682633;;0
1595852682634;;;0.001953125
1595852682634;;;;-0.001953125
1595852682634;;;;;-0.005859375
1595852682672;;;0.005859375
1595852682673;;;;0.001953125
1595852682673;;;;;0
1595852682696;0
1595852682696;;0
1595852682731;;;0
1595852682733;;;;-0.005859375
1595852682737;;;;;0.00390625
1595852682790;;;-0.005859375
1595852682791;;;;-0.001953125
1595852682792;;;;;0
1595852682822;0
1595852682823;;0
1595852682862;;;0.005859375
1595852682862;;;;0
1595852682865;;;;;0
1595852682903;0
1595852682912;;-1
1595852682923;;;-0.00390625
1595852682924;;;;-0.001953125
1595852682924;;;;;0
1595852682976;;;0.0078125
1595852682976;;;;0
1595852682979;;;;;-0.005859375
1595852683009;0
1595852683026;;1
1595852683029;;;0.00390625
1595852683033;;;;0
1595852683035;;;;;-0.001953125
1595852683083;0
1595852683085;;-1
1595852683091;;;-0.001953125
1595852683091;;;;0.00390625
1595852683095;;;;;-0.001953125
1595852683160;;;0.005859375
1595852683161;;;;0.001953125
1595852683166;;;;;0
1595852683186;0
1595852683192;;2
1595852683217;;;-0.00390625
1595852683218;;;;0
1595852683220;;;;;0
1595852683266;;;0.001953125
1595852683274;;;;0
1595852683275;;;;;0.001953125
1595852683306;0
1595852683307;;-2
1595852683327;;;0.00390625
1595852683333;;;;0
1595852683338;;;;;0.001953125
1595852683389;;;0.00390625
1595852683390;;;;-0.0078125
1595852683392;;;;;-0.001953125
1595852683402;0
1595852683409;;1
1595852683450;;;-0.0078125
1595852683452;;;;0.001953125
1595852683452;;;;;0.00390625
